slf_file,obs_file,test_file,slf_condition,slf_pair_pat,slf_order_pat,slf_conf_pat,slf_reward_left,slf_reward_right,obs_condition,obs_pair_pat,obs_order_pat,obs_conf_pat,obs_reward_left,obs_reward_right,obs_pos_chosen,obs_conf,obs_reward,obs_img_time,obs_conf_time,test_condition,test_pair_pat,test_order_pat,test_conf_pat,BlockLoop.thisRepN,BlockLoop.thisTrialN,BlockLoop.thisN,BlockLoop.thisIndex,SlfSequence.thisRepN,SlfSequence.thisTrialN,SlfSequence.thisN,SlfSequence.thisIndex,SlfSkip.thisRepN,SlfSkip.thisTrialN,SlfSkip.thisN,SlfSkip.thisIndex,ObsSequence.thisRepN,ObsSequence.thisTrialN,ObsSequence.thisN,ObsSequence.thisIndex,TestSequence.thisRepN,TestSequence.thisTrialN,TestSequence.thisN,TestSequence.thisIndex,TestSkip.thisRepN,TestSkip.thisTrialN,TestSkip.thisN,TestSkip.thisIndex,STANDBY_TEXT.started,STANDBY_RESP.started,STANDBY_RESP.keys,STANDBY_RESP.rt,SLF_INSTR.started,SLF_IMG_FIX.started,SLF_IMG_LEFT.started,SLF_IMG_RIGHT.started,SLF_IMG_RESP.started,SLF_IMG_LEFT.stopped,SLF_IMG_RIGHT.stopped,SLF_IMG_RESP.stopped,SLF_IMG_FIX.stopped,SLF_IMG_RESP.keys,SLF_IMG_RESP.corr,SLF_IMGFB_FIX.started,SLF_IMGFB_FRAME.started,SLF_IMGFB_IMG_LEFT.started,SLF_IMGFB_IMG_RIGHT.started,SLF_IMGFB_FIX.stopped,SLF_IMGFB_FRAME.stopped,SLF_IMGFB_IMG_LEFT.stopped,SLF_IMGFB_IMG_RIGHT.stopped,SLF_REWARD_FRAME.started,SLF_REWARD_IMG_LEFT.started,SLF_REWARD_IMG_RIGHT.started,SLF_REWARD_TEXT.started,SLF_REWARD_FRAME.stopped,SLF_REWARD_IMG_LEFT.stopped,SLF_REWARD_IMG_RIGHT.stopped,SLF_REWARD_TEXT.stopped,OBS_INSTR.started,OBS_IMG_FIX.started,OBS_IMGFB_FRAME.started,OBS_IMG_LEFT.started,OBS_IMG_RIGHT.started,OBS_IMG_FIX.stopped,OBS_IMGFB_FRAME.stopped,OBS_IMG_LEFT.stopped,OBS_IMG_RIGHT.stopped,OBS_CONF_FIX.started,OBS_CONFFB_FRAME.started,OBS_CONF_LOW_BOX.started,OBS_CONF_LOW_TEXT.started,OBS_CONF_HIGH_BOX.started,OBS_CONF_HIGH_TEXT.started,OBS_CONF_FIX.stopped,OBS_CONFFB_FRAME.stopped,OBS_CONF_LOW_BOX.stopped,OBS_CONF_LOW_TEXT.stopped,OBS_CONF_HIGH_BOX.stopped,OBS_CONF_HIGH_TEXT.stopped,OBS_REWARD_FRAME.started,OBS_REWARD_IMG_LEFT.started,OBS_REWARD_IMG_RIGHT.started,OBS_REWARD_TEXT.started,OBS_REWARD_FRAME.stopped,OBS_REWARD_IMG_LEFT.stopped,OBS_REWARD_IMG_RIGHT.stopped,OBS_REWARD_TEXT.stopped,TEST_INSTR.started,TEST_INSTR.stopped,TEST_IMG_FIX.started,TEST_IMG_LEFT.started,TEST_IMG_RIGHT.started,TEST_IMG_RESP.started,TEST_IMG_LEFT.stopped,TEST_IMG_RIGHT.stopped,TEST_IMG_RESP.stopped,TEST_IMG_FIX.stopped,TEST_IMG_RESP.keys,TEST_IMG_RESP.corr,TEST_IMGFB_FIX.started,TEST_IMGFB_FRAME.started,TEST_IMGFB_IMG_LEFT.started,TEST_IMGFB_IMG_RIGHT.started,TEST_IMGFB_FIX.stopped,TEST_IMGFB_FRAME.stopped,TEST_IMGFB_IMG_LEFT.stopped,TEST_IMGFB_IMG_RIGHT.stopped,TEST_REWARD_FRAME.started,TEST_REWARD_IMG_LEFT.started,TEST_REWARD_IMG_RIGHT.started,TEST_REWARD_TEXT.started,TEST_REWARD_FRAME.stopped,TEST_REWARD_IMG_LEFT.stopped,TEST_REWARD_IMG_RIGHT.stopped,TEST_REWARD_TEXT.stopped,participant,date,expName,psychopyVersion,frameRate,
,,,,,,,,,,,,,,,,,,,,,,,,,,,,,,,,,,,,,,,,,,,,,,,,16.292428165965248,16.292428165965248,space,1.1692614160710946,,,,,,,,,,,,,,,,,,,,,,,,,,,,,,,,,,,,,,,,,,,,,,,,,,,,,,,,,,,,,,,,,,,,,,,,,,,,,,,,,,,,,testl,2023-06-27_19h11.17.272,Pattern_1,2022.2.4,None,
game1/slf11.xlsx,game1/obs11.xlsx,game1/test11.xlsx,0,1,1,2,33,38,,,,,,,,,,,,,,,,0,0,0,0,0,0,0,0,,,,,,,,,,,,,,,,,,,,,20.527747082989663,20.880291040986776,21.09652029100107,21.09652029100107,21.09652029100107,21.39294074999634,21.39294074999634,21.39294074999634,21.507004124985542,None,0,21.507004124985542,21.507004124985542,21.507004124985542,21.507004124985542,21.820917166012805,21.820917166012805,21.820917166012805,21.820917166012805,21.820917166012805,21.820917166012805,21.820917166012805,21.820917166012805,22.150390958006028,22.150390958006028,22.150390958006028,22.150390958006028,,,,,,,,,,,,,,,,,,,,,,,,,,,,,,,,,,,,,,,,,,,,,,,,,,,,,,,,,,testl,2023-06-27_19h11.17.272,Pattern_1,2022.2.4,None,
game1/slf11.xlsx,game1/obs11.xlsx,game1/test11.xlsx,0,2,2,1,61,41,,,,,,,,,,,,,,,,0,0,0,0,0,1,1,1,,,,,,,,,,,,,,,,,,,,,,22.150390958006028,22.427192499977536,22.427192499977536,22.427192499977536,22.724003624985926,22.724003624985926,22.724003624985926,22.76408812496811,None,0,22.76408812496811,22.76408812496811,22.76408812496811,22.76408812496811,23.07964379101759,23.07964379101759,23.07964379101759,23.07964379101759,23.07964379101759,23.07964379101759,23.07964379101759,23.07964379101759,23.41394866601331,23.41394866601331,23.41394866601331,23.41394866601331,,,,,,,,,,,,,,,,,,,,,,,,,,,,,,,,,,,,,,,,,,,,,,,,,,,,,,,,,,testl,2023-06-27_19h11.17.272,Pattern_1,2022.2.4,None,
game1/slf11.xlsx,game1/obs11.xlsx,game1/test11.xlsx,0,3,1,2,51,24,,,,,,,,,,,,,,,,0,0,0,0,0,2,2,2,,,,,,,,,,,,,,,,,,,,,,23.41394866601331,23.69084854098037,23.69084854098037,23.69084854098037,23.97712983301608,23.97712983301608,23.97712983301608,24.02666579099605,None,0,24.02666579099605,24.02666579099605,24.02666579099605,24.02666579099605,24.335333707975224,24.335333707975224,24.335333707975224,24.335333707975224,24.335333707975224,24.335333707975224,24.335333707975224,24.335333707975224,24.667228500009514,24.667228500009514,24.667228500009514,24.667228500009514,,,,,,,,,,,,,,,,,,,,,,,,,,,,,,,,,,,,,,,,,,,,,,,,,,,,,,,,,,testl,2023-06-27_19h11.17.272,Pattern_1,2022.2.4,None,
game1/slf11.xlsx,game1/obs11.xlsx,game1/test11.xlsx,0,2,1,1,32,49,,,,,,,,,,,,,,,,0,0,0,0,0,3,3,3,,,,,,,,,,,,,,,,,,,,,,24.667228500009514,24.94352216599509,24.94352216599509,24.94352216599509,25.240644333011005,25.240644333011005,25.240644333011005,25.278562832972966,None,0,25.278562832972966,25.278562832972966,25.278562832972966,25.278562832972966,25.59384487499483,25.59384487499483,25.59384487499483,25.59384487499483,25.59384487499483,25.59384487499483,25.59384487499483,25.59384487499483,25.92344633297762,25.92344633297762,25.92344633297762,25.92344633297762,,,,,,,,,,,,,,,,,,,,,,,,,,,,,,,,,,,,,,,,,,,,,,,,,,,,,,,,,,testl,2023-06-27_19h11.17.272,Pattern_1,2022.2.4,None,
game1/slf11.xlsx,game1/obs11.xlsx,game1/test11.xlsx,0,1,2,2,44,27,,,,,,,,,,,,,,,,0,0,0,0,0,4,4,4,,,,,,,,,,,,,,,,,,,,,,25.92344633297762,26.193931582965888,26.193931582965888,26.193931582965888,26.490449791017454,26.490449791017454,26.490449791017454,26.527128832996823,None,0,26.527128832996823,26.527128832996823,26.527128832996823,26.527128832996823,26.832349458010867,26.832349458010867,26.832349458010867,26.832349458010867,26.832349458010867,26.832349458010867,26.832349458010867,26.832349458010867,27.170324874983635,27.170324874983635,27.170324874983635,27.170324874983635,,,,,,,,,,,,,,,,,,,,,,,,,,,,,,,,,,,,,,,,,,,,,,,,,,,,,,,,,,testl,2023-06-27_19h11.17.272,Pattern_1,2022.2.4,None,
game1/slf11.xlsx,game1/obs11.xlsx,game1/test11.xlsx,0,3,2,2,25,63,,,,,,,,,,,,,,,,0,0,0,0,0,5,5,5,,,,,,,,,,,,,,,,,,,,,,27.170324874983635,27.443557249964215,27.443557249964215,27.443557249964215,27.740426291013137,27.740426291013137,27.740426291013137,27.776026832987554,None,0,27.776026832987554,27.776026832987554,27.776026832987554,27.776026832987554,28.081782915978692,28.081782915978692,28.081782915978692,28.081782915978692,28.081782915978692,28.081782915978692,28.081782915978692,28.081782915978692,28.439982999989297,28.439982999989297,28.439982999989297,28.439982999989297,,,,,,,,,,,,,,,,,,,,,,,,,,,,,,,,,,,,,,,,,,,,,,,,,,,,,,,,,,testl,2023-06-27_19h11.17.272,Pattern_1,2022.2.4,None,
game1/slf11.xlsx,game1/obs11.xlsx,game1/test11.xlsx,0,1,1,1,19,45,,,,,,,,,,,,,,,,0,0,0,0,0,6,6,6,,,,,,,,,,,,,,,,,,,,,,28.439982999989297,28.710933582973666,28.710933582973666,28.710933582973666,29.007255500007886,29.007255500007886,29.007255500007886,29.053918624995276,None,0,29.053918624995276,29.053918624995276,29.053918624995276,29.053918624995276,29.36815687501803,29.36815687501803,29.36815687501803,29.36815687501803,29.36815687501803,29.36815687501803,29.36815687501803,29.36815687501803,29.705326207971666,29.705326207971666,29.705326207971666,29.705326207971666,,,,,,,,,,,,,,,,,,,,,,,,,,,,,,,,,,,,,,,,,,,,,,,,,,,,,,,,,,testl,2023-06-27_19h11.17.272,Pattern_1,2022.2.4,None,
game1/slf11.xlsx,game1/obs11.xlsx,game1/test11.xlsx,0,3,1,2,47,24,,,,,,,,,,,,,,,,0,0,0,0,0,7,7,7,,,,,,,,,,,,,,,,,,,,,,29.705326207971666,29.976429958012886,29.976429958012886,29.976429958012886,30.273762208002154,30.273762208002154,30.273762208002154,30.310193874989636,None,0,30.310193874989636,30.310193874989636,30.310193874989636,30.310193874989636,30.611229999980424,30.611229999980424,30.611229999980424,30.611229999980424,30.611229999980424,30.611229999980424,30.611229999980424,30.611229999980424,30.952255915966816,30.952255915966816,30.952255915966816,30.952255915966816,,,,,,,,,,,,,,,,,,,,,,,,,,,,,,,,,,,,,,,,,,,,,,,,,,,,,,,,,,testl,2023-06-27_19h11.17.272,Pattern_1,2022.2.4,None,
game1/slf11.xlsx,game1/obs11.xlsx,game1/test11.xlsx,0,2,2,1,50,45,,,,,,,,,,,,,,,,0,0,0,0,0,8,8,8,,,,,,,,,,,,,,,,,,,,,,30.952255915966816,31.226789999986067,31.226789999986067,31.226789999986067,31.523718415992334,31.523718415992334,31.523718415992334,31.559751124994364,None,0,31.559751124994364,31.559751124994364,31.559751124994364,31.559751124994364,31.863941749965306,31.863941749965306,31.863941749965306,31.863941749965306,31.863941749965306,31.863941749965306,31.863941749965306,31.863941749965306,32.216938374971505,32.216938374971505,32.216938374971505,32.216938374971505,,,,,,,,,,,,,,,,,,,,,,,,,,,,,,,,,,,,,,,,,,,,,,,,,,,,,,,,,,testl,2023-06-27_19h11.17.272,Pattern_1,2022.2.4,None,
game1/slf11.xlsx,game1/obs11.xlsx,game1/test11.xlsx,,,,,,,0,2,2,2,63,45,right,low,45,1.137860019088111,0.1210825353131101,,,,,0,0,0,0,,,,,,,,,0,0,0,0,,,,,,,,,,,,,,,,,,,,,,,,,,,,,,,,,,,,,,,,32.216938374971505,32.5342486659647,32.778071416018065,32.778071416018065,32.778071416018065,34.259972999978345,34.514904790965375,34.514904790965375,34.514904790965375,34.514904790965375,34.514904790965375,34.514904790965375,34.514904790965375,34.514904790965375,34.514904790965375,34.9549613330164,34.9549613330164,34.9549613330164,34.9549613330164,34.9549613330164,34.9549613330164,34.9549613330164,34.9549613330164,34.9549613330164,34.9549613330164,35.28294120798819,35.28294120798819,35.28294120798819,35.28294120798819,,,,,,,,,,,,,,,,,,,,,,,,,,,,,testl,2023-06-27_19h11.17.272,Pattern_1,2022.2.4,None,
game1/slf11.xlsx,game1/obs11.xlsx,game1/test11.xlsx,,,,,,,0,3,1,1,53,15,left,low,53,1.182594212648595,1.239309994590451,,,,,0,0,0,0,,,,,,,,,0,1,1,1,,,,,,,,,,,,,,,,,,,,,,,,,,,,,,,,,,,,,,,,,35.28294120798819,35.56003137497464,35.56003137497464,35.56003137497464,37.06103762501152,37.34032895800192,37.34032895800192,37.34032895800192,37.34032895800192,37.34032895800192,37.34032895800192,37.34032895800192,37.34032895800192,37.34032895800192,38.891982749977615,38.891982749977615,38.891982749977615,38.891982749977615,38.891982749977615,38.891982749977615,38.891982749977615,38.891982749977615,38.891982749977615,38.891982749977615,39.22498020797502,39.22498020797502,39.22498020797502,39.22498020797502,,,,,,,,,,,,,,,,,,,,,,,,,,,,,testl,2023-06-27_19h11.17.272,Pattern_1,2022.2.4,None,
game1/slf11.xlsx,game1/obs11.xlsx,game1/test11.xlsx,,,,,,,0,1,1,2,35,46,right,low,46,1.535435221973659,0.39881564901611,,,,,0,0,0,0,,,,,,,,,0,2,2,2,,,,,,,,,,,,,,,,,,,,,,,,,,,,,,,,,,,,,,,,,39.22498020797502,39.493840707989875,39.493840707989875,39.493840707989875,41.356701874989085,41.628080957976636,41.628080957976636,41.628080957976636,41.628080957976636,41.628080957976636,41.628080957976636,41.628080957976636,41.628080957976636,41.628080957976636,42.32597274996806,42.32597274996806,42.32597274996806,42.32597274996806,42.32597274996806,42.32597274996806,42.32597274996806,42.32597274996806,42.32597274996806,42.32597274996806,42.647600332973525,42.647600332973525,42.647600332973525,42.647600332973525,,,,,,,,,,,,,,,,,,,,,,,,,,,,,testl,2023-06-27_19h11.17.272,Pattern_1,2022.2.4,None,
game1/slf11.xlsx,game1/obs11.xlsx,game1/test11.xlsx,,,,,,,0,3,2,1,23,46,left,low,23,0.7336790982121868,0.2231343744844985,,,,,0,0,0,0,,,,,,,,,0,3,3,3,,,,,,,,,,,,,,,,,,,,,,,,,,,,,,,,,,,,,,,,,42.647600332973525,42.92625404096907,42.92625404096907,42.92625404096907,43.97970395797165,44.25706741597969,44.25706741597969,44.25706741597969,44.25706741597969,44.25706741597969,44.25706741597969,44.25706741597969,44.25706741597969,44.25706741597969,44.79006141598802,44.79006141598802,44.79006141598802,44.79006141598802,44.79006141598802,44.79006141598802,44.79006141598802,44.79006141598802,44.79006141598802,44.79006141598802,45.152830332983285,45.152830332983285,45.152830332983285,45.152830332983285,,,,,,,,,,,,,,,,,,,,,,,,,,,,,testl,2023-06-27_19h11.17.272,Pattern_1,2022.2.4,None,
game1/slf11.xlsx,game1/obs11.xlsx,game1/test11.xlsx,,,,,,,0,1,2,1,45,20,right,low,20,1.48414291351069,1.169699929432276,,,,,0,0,0,0,,,,,,,,,0,4,4,4,,,,,,,,,,,,,,,,,,,,,,,,,,,,,,,,,,,,,,,,,45.152830332983285,45.426455250009894,45.426455250009894,45.426455250009894,47.22767566598486,47.50689312501345,47.50689312501345,47.50689312501345,47.50689312501345,47.50689312501345,47.50689312501345,47.50689312501345,47.50689312501345,47.50689312501345,48.98064670799067,48.98064670799067,48.98064670799067,48.98064670799067,48.98064670799067,48.98064670799067,48.98064670799067,48.98064670799067,48.98064670799067,48.98064670799067,49.32974416599609,49.32974416599609,49.32974416599609,49.32974416599609,,,,,,,,,,,,,,,,,,,,,,,,,,,,,testl,2023-06-27_19h11.17.272,Pattern_1,2022.2.4,None,
game1/slf11.xlsx,game1/obs11.xlsx,game1/test11.xlsx,,,,,,,0,2,1,2,43,53,right,low,53,0.9448328625272091,0.4718925370411068,,,,,0,0,0,0,,,,,,,,,0,5,5,5,,,,,,,,,,,,,,,,,,,,,,,,,,,,,,,,,,,,,,,,,49.32974416599609,49.60716770798899,49.60716770798899,49.60716770798899,50.87334045796888,51.144922250008676,51.144922250008676,51.144922250008676,51.144922250008676,51.144922250008676,51.144922250008676,51.144922250008676,51.144922250008676,51.144922250008676,51.92320129100699,51.92320129100699,51.92320129100699,51.92320129100699,51.92320129100699,51.92320129100699,51.92320129100699,51.92320129100699,51.92320129100699,51.92320129100699,52.251052875013556,52.251052875013556,52.251052875013556,52.251052875013556,,,,,,,,,,,,,,,,,,,,,,,,,,,,,testl,2023-06-27_19h11.17.272,Pattern_1,2022.2.4,None,
game1/slf11.xlsx,game1/obs11.xlsx,game1/test11.xlsx,,,,,,,0,3,1,1,48,45,left,high,48,0.8836401145992754,0.6923702641804376,,,,,0,0,0,0,,,,,,,,,0,6,6,6,,,,,,,,,,,,,,,,,,,,,,,,,,,,,,,,,,,,,,,,,52.251052875013556,52.526150540972594,52.526150540972594,52.526150540972594,53.72592275001807,54.00665283296257,54.00665283296257,54.00665283296257,54.00665283296257,54.00665283296257,54.00665283296257,54.00665283296257,54.00665283296257,54.00665283296257,55.005113290972076,55.005113290972076,55.005113290972076,55.005113290972076,55.005113290972076,55.005113290972076,55.005113290972076,55.005113290972076,55.005113290972076,55.005113290972076,55.334247957973275,55.334247957973275,55.334247957973275,55.334247957973275,,,,,,,,,,,,,,,,,,,,,,,,,,,,,testl,2023-06-27_19h11.17.272,Pattern_1,2022.2.4,None,
game1/slf11.xlsx,game1/obs11.xlsx,game1/test11.xlsx,,,,,,,0,2,2,1,59,38,right,low,38,1.222356837029504,0.220061950931031,,,,,0,0,0,0,,,,,,,,,0,7,7,7,,,,,,,,,,,,,,,,,,,,,,,,,,,,,,,,,,,,,,,,,55.334247957973275,55.609728000010364,55.609728000010364,55.609728000010364,57.14241074997699,57.42801912501454,57.42801912501454,57.42801912501454,57.42801912501454,57.42801912501454,57.42801912501454,57.42801912501454,57.42801912501454,57.42801912501454,57.955837332992814,57.955837332992814,57.955837332992814,57.955837332992814,57.955837332992814,57.955837332992814,57.955837332992814,57.955837332992814,57.955837332992814,57.955837332992814,58.28241916600382,58.28241916600382,58.28241916600382,58.28241916600382,,,,,,,,,,,,,,,,,,,,,,,,,,,,,testl,2023-06-27_19h11.17.272,Pattern_1,2022.2.4,None,
game1/slf11.xlsx,game1/obs11.xlsx,game1/test11.xlsx,,,,,,,0,1,1,2,32,34,right,low,34,1.275137733155847,0.6384044732453276,,,,,0,0,0,0,,,,,,,,,0,8,8,8,,,,,,,,,,,,,,,,,,,,,,,,,,,,,,,,,,,,,,,,,58.28241916600382,58.559557707980275,58.559557707980275,58.559557707980275,60.142437333008274,60.427939040993806,60.427939040993806,60.427939040993806,60.427939040993806,60.427939040993806,60.427939040993806,60.427939040993806,60.427939040993806,60.427939040993806,61.37174058298115,61.37174058298115,61.37174058298115,61.37174058298115,61.37174058298115,61.37174058298115,61.37174058298115,61.37174058298115,61.37174058298115,61.37174058298115,61.71618520800257,61.71618520800257,61.71618520800257,61.71618520800257,,,,,,,,,,,,,,,,,,,,,,,,,,,,,testl,2023-06-27_19h11.17.272,Pattern_1,2022.2.4,None,
game1/slf11.xlsx,game1/obs11.xlsx,game1/test11.xlsx,,,,,,,,,,,,,,,,,,3,3,1,1,0,0,0,0,,,,,,,,,,,,,0,0,0,0,,,,,,,,,,,,,,,,,,,,,,,,,,,,,,,,,,,,,,,,,,,,,,,,,,,,,,,,,,,,,,,,,61.71618520800257,62.03581595799187,62.03581595799187,62.276134375017136,62.276134375017136,62.276134375017136,62.57325374998618,62.57325374998618,62.57325374998618,62.63985758298077,None,0,62.63985758298077,62.63985758298077,62.63985758298077,62.63985758298077,62.94327516597696,62.94327516597696,62.94327516597696,62.94327516597696,62.94327516597696,62.94327516597696,62.94327516597696,62.94327516597696,63.27572558296379,63.27572558296379,63.27572558296379,63.27572558296379,testl,2023-06-27_19h11.17.272,Pattern_1,2022.2.4,None,
game1/slf11.xlsx,game1/obs11.xlsx,game1/test11.xlsx,,,,,,,,,,,,,,,,,,1,1,2,1,0,0,0,0,,,,,,,,,,,,,0,1,1,1,,,,,,,,,,,,,,,,,,,,,,,,,,,,,,,,,,,,,,,,,,,,,,,,,,,,,,,,,,,,,,,,,,,63.27572558296379,63.55659724998986,63.55659724998986,63.55659724998986,63.84271962498315,63.84271962498315,63.84271962498315,63.89002150000306,None,0,63.89002150000306,63.89002150000306,63.89002150000306,63.89002150000306,64.18849745800253,64.18849745800253,64.18849745800253,64.18849745800253,64.18849745800253,64.18849745800253,64.18849745800253,64.18849745800253,64.64959474996431,64.64959474996431,64.64959474996431,64.64959474996431,testl,2023-06-27_19h11.17.272,Pattern_1,2022.2.4,None,
game1/slf11.xlsx,game1/obs11.xlsx,game1/test11.xlsx,,,,,,,,,,,,,,,,,,4,5,0,1,0,0,0,0,,,,,,,,,,,,,0,2,2,2,,,,,,,,,,,,,,,,,,,,,,,,,,,,,,,,,,,,,,,,,,,,,,,,,,,,,,,,,,,,,,,,,,,64.64959474996431,64.92565449996619,64.92565449996619,64.92565449996619,65.22323929099366,65.22323929099366,65.22323929099366,65.2556243329891,None,0,65.2556243329891,65.2556243329891,65.2556243329891,65.2556243329891,65.55604229099117,65.55604229099117,65.55604229099117,65.55604229099117,65.55604229099117,65.55604229099117,65.55604229099117,65.55604229099117,65.88499637501081,65.88499637501081,65.88499637501081,65.88499637501081,testl,2023-06-27_19h11.17.272,Pattern_1,2022.2.4,None,
game1/slf11.xlsx,game1/obs11.xlsx,game1/test11.xlsx,,,,,,,,,,,,,,,,,,2,2,1,1,0,0,0,0,,,,,,,,,,,,,0,3,3,3,,,,,,,,,,,,,,,,,,,,,,,,,,,,,,,,,,,,,,,,,,,,,,,,,,,,,,,,,,,,,,,,,,,65.88499637501081,66.1589482909767,66.1589482909767,66.1589482909767,66.4566262079752,66.4566262079752,66.4566262079752,66.49207258300157,None,0,66.49207258300157,66.49207258300157,66.49207258300157,66.49207258300157,66.79417479096446,66.79417479096446,66.79417479096446,66.79417479096446,66.79417479096446,66.79417479096446,66.79417479096446,66.79417479096446,67.13949508301448,67.13949508301448,67.13949508301448,67.13949508301448,testl,2023-06-27_19h11.17.272,Pattern_1,2022.2.4,None,
game1/slf11.xlsx,game1/obs11.xlsx,game1/test11.xlsx,,,,,,,,,,,,,,,,,,3,1,2,1,0,0,0,0,,,,,,,,,,,,,0,4,4,4,,,,,,,,,,,,,,,,,,,,,,,,,,,,,,,,,,,,,,,,,,,,,,,,,,,,,,,,,,,,,,,,,,,67.13949508301448,67.42323575000046,67.42323575000046,67.42323575000046,67.71019879099913,67.71019879099913,67.71019879099913,67.74656975001562,None,0,67.74656975001562,67.74656975001562,67.74656975001562,67.74656975001562,68.05600766598945,68.05600766598945,68.05600766598945,68.05600766598945,68.05600766598945,68.05600766598945,68.05600766598945,68.05600766598945,68.38961658300832,68.38961658300832,68.38961658300832,68.38961658300832,testl,2023-06-27_19h11.17.272,Pattern_1,2022.2.4,None,
game1/slf11.xlsx,game1/obs11.xlsx,game1/test11.xlsx,,,,,,,,,,,,,,,,,,4,3,1,2,0,0,0,0,,,,,,,,,,,,,0,5,5,5,,,,,,,,,,,,,,,,,,,,,,,,,,,,,,,,,,,,,,,,,,,,,,,,,,,,,,,,,,,,,,,,,,,68.38961658300832,68.65982574998634,68.65982574998634,68.65982574998634,68.95663766597863,68.95663766597863,68.95663766597863,68.99145029101055,None,0,68.99145029101055,68.99145029101055,68.99145029101055,68.99145029101055,69.29256229096791,69.29256229096791,69.29256229096791,69.29256229096791,69.29256229096791,69.29256229096791,69.29256229096791,69.29256229096791,69.62746745801996,69.62746745801996,69.62746745801996,69.62746745801996,testl,2023-06-27_19h11.17.272,Pattern_1,2022.2.4,None,
game1/slf11.xlsx,game1/obs11.xlsx,game1/test11.xlsx,,,,,,,,,,,,,,,,,,1,2,2,2,0,0,0,0,,,,,,,,,,,,,0,6,6,6,,,,,,,,,,,,,,,,,,,,,,,,,,,,,,,,,,,,,,,,,,,,,,,,,,,,,,,,,,,,,,,,,,,69.62746745801996,69.90886616596254,69.90886616596254,69.90886616596254,70.20653054100694,70.20653054100694,70.20653054100694,70.23826800001552,None,0,70.23826800001552,70.23826800001552,70.23826800001552,70.23826800001552,70.53857704100665,70.53857704100665,70.53857704100665,70.53857704100665,70.53857704100665,70.53857704100665,70.53857704100665,70.53857704100665,70.87235508300364,70.87235508300364,70.87235508300364,70.87235508300364,testl,2023-06-27_19h11.17.272,Pattern_1,2022.2.4,None,
game1/slf11.xlsx,game1/obs11.xlsx,game1/test11.xlsx,,,,,,,,,,,,,,,,,,3,6,0,2,0,0,0,0,,,,,,,,,,,,,0,7,7,7,,,,,,,,,,,,,,,,,,,,,,,,,,,,,,,,,,,,,,,,,,,,,,,,,,,,,,,,,,,,,,,,,,,70.87235508300364,71.14206183300121,71.14206183300121,71.14206183300121,71.43999716598773,71.43999716598773,71.43999716598773,71.47113912500208,None,0,71.47113912500208,71.47113912500208,71.47113912500208,71.47113912500208,71.77162316598697,71.77162316598697,71.77162316598697,71.77162316598697,71.77162316598697,71.77162316598697,71.77162316598697,71.77162316598697,72.10344541596714,72.10344541596714,72.10344541596714,72.10344541596714,testl,2023-06-27_19h11.17.272,Pattern_1,2022.2.4,None,
game1/slf11.xlsx,game1/obs11.xlsx,game1/test11.xlsx,,,,,,,,,,,,,,,,,,2,3,1,1,0,0,0,0,,,,,,,,,,,,,0,8,8,8,,,,,,,,,,,,,,,,,,,,,,,,,,,,,,,,,,,,,,,,,,,,,,,,,,,,,,,,,,,,,,,,,,,72.10344541596714,72.37564174999716,72.37564174999716,72.37564174999716,72.6732648750185,72.6732648750185,72.6732648750185,72.70461074996274,None,0,72.70461074996274,72.70461074996274,72.70461074996274,72.70461074996274,73.00485299999127,73.00485299999127,73.00485299999127,73.00485299999127,73.00485299999127,73.00485299999127,73.00485299999127,73.00485299999127,73.34019233298022,73.34019233298022,73.34019233298022,73.34019233298022,testl,2023-06-27_19h11.17.272,Pattern_1,2022.2.4,None,
game1/slf11.xlsx,game1/obs11.xlsx,game1/test11.xlsx,,,,,,,,,,,,,,,,,,4,1,2,1,0,0,0,0,,,,,,,,,,,,,0,9,9,9,,,,,,,,,,,,,,,,,,,,,,,,,,,,,,,,,,,,,,,,,,,,,,,,,,,,,,,,,,,,,,,,,,,73.34019233298022,73.62327091599582,73.62327091599582,73.62327091599582,73.90862016601022,73.90862016601022,73.90862016601022,73.93935674999375,None,0,73.93935674999375,73.93935674999375,73.93935674999375,73.93935674999375,74.23919062496861,74.23919062496861,74.23919062496861,74.23919062496861,74.23919062496861,74.23919062496861,74.23919062496861,74.23919062496861,74.5764469159767,74.5764469159767,74.5764469159767,74.5764469159767,testl,2023-06-27_19h11.17.272,Pattern_1,2022.2.4,None,
game1/slf11.xlsx,game1/obs11.xlsx,game1/test11.xlsx,,,,,,,,,,,,,,,,,,3,2,1,1,0,0,0,0,,,,,,,,,,,,,0,10,10,10,,,,,,,,,,,,,,,,,,,,,,,,,,,,,,,,,,,,,,,,,,,,,,,,,,,,,,,,,,,,,,,,,,,74.5764469159767,74.85883641598048,74.85883641598048,74.85883641598048,75.15682066598674,75.15682066598674,75.15682066598674,75.17581804096699,None,0,75.17581804096699,75.17581804096699,75.17581804096699,75.17581804096699,75.47584645799361,75.47584645799361,75.47584645799361,75.47584645799361,75.47584645799361,75.47584645799361,75.47584645799361,75.47584645799361,75.81188641599147,75.81188641599147,75.81188641599147,75.81188641599147,testl,2023-06-27_19h11.17.272,Pattern_1,2022.2.4,None,
game1/slf11.xlsx,game1/obs11.xlsx,game1/test11.xlsx,,,,,,,,,,,,,,,,,,1,3,2,2,0,0,0,0,,,,,,,,,,,,,0,11,11,11,,,,,,,,,,,,,,,,,,,,,,,,,,,,,,,,,,,,,,,,,,,,,,,,,,,,,,,,,,,,,,,,,,,75.81188641599147,76.09211066598073,76.09211066598073,76.09211066598073,76.38978345796932,76.38978345796932,76.38978345796932,76.42128025001148,None,0,76.42128025001148,76.42128025001148,76.42128025001148,76.42128025001148,76.72152066597482,76.72152066597482,76.72152066597482,76.72152066597482,76.72152066597482,76.72152066597482,76.72152066597482,76.72152066597482,77.05540124996332,77.05540124996332,77.05540124996332,77.05540124996332,testl,2023-06-27_19h11.17.272,Pattern_1,2022.2.4,None,
game1/slf11.xlsx,game1/obs11.xlsx,game1/test11.xlsx,,,,,,,,,,,,,,,,,,4,1,1,2,0,0,0,0,,,,,,,,,,,,,0,12,12,12,,,,,,,,,,,,,,,,,,,,,,,,,,,,,,,,,,,,,,,,,,,,,,,,,,,,,,,,,,,,,,,,,,,77.05540124996332,77.33974683296401,77.33974683296401,77.33974683296401,77.62692033301573,77.62692033301573,77.62692033301573,77.65465899999253,None,0,77.65465899999253,77.65465899999253,77.65465899999253,77.65465899999253,77.95565199997509,77.95565199997509,77.95565199997509,77.95565199997509,77.95565199997509,77.95565199997509,77.95565199997509,77.95565199997509,78.28981975000352,78.28981975000352,78.28981975000352,78.28981975000352,testl,2023-06-27_19h11.17.272,Pattern_1,2022.2.4,None,
game1/slf11.xlsx,game1/obs11.xlsx,game1/test11.xlsx,,,,,,,,,,,,,,,,,,2,1,1,2,0,0,0,0,,,,,,,,,,,,,0,13,13,13,,,,,,,,,,,,,,,,,,,,,,,,,,,,,,,,,,,,,,,,,,,,,,,,,,,,,,,,,,,,,,,,,,,78.28981975000352,78.57552758301608,78.57552758301608,78.57552758301608,78.87342037499184,78.87342037499184,78.87342037499184,78.88818399998127,None,0,78.88818399998127,78.88818399998127,78.88818399998127,78.88818399998127,79.18838245799998,79.18838245799998,79.18838245799998,79.18838245799998,79.18838245799998,79.18838245799998,79.18838245799998,79.18838245799998,79.52584533300251,79.52584533300251,79.52584533300251,79.52584533300251,testl,2023-06-27_19h11.17.272,Pattern_1,2022.2.4,None,
game1/slf11.xlsx,game1/obs11.xlsx,game1/test11.xlsx,,,,,,,,,,,,,,,,,,3,3,2,1,0,0,0,0,,,,,,,,,,,,,0,14,14,14,,,,,,,,,,,,,,,,,,,,,,,,,,,,,,,,,,,,,,,,,,,,,,,,,,,,,,,,,,,,,,,,,,,79.52584533300251,79.80891945800977,79.80891945800977,79.80891945800977,80.1063952909899,80.1063952909899,80.1063952909899,80.12562100001378,None,0,80.12562100001378,80.12562100001378,80.12562100001378,80.12562100001378,80.42566954100039,80.42566954100039,80.42566954100039,80.42566954100039,80.42566954100039,80.42566954100039,80.42566954100039,80.42566954100039,80.7659776249784,80.7659776249784,80.7659776249784,80.7659776249784,testl,2023-06-27_19h11.17.272,Pattern_1,2022.2.4,None,
game1/slf11.xlsx,game1/obs11.xlsx,game1/test11.xlsx,,,,,,,,,,,,,,,,,,4,4,0,2,0,0,0,0,,,,,,,,,,,,,0,15,15,15,,,,,,,,,,,,,,,,,,,,,,,,,,,,,,,,,,,,,,,,,,,,,,,,,,,,,,,,,,,,,,,,,,,80.7659776249784,81.04206262499793,81.04206262499793,81.04206262499793,81.33976958296262,81.33976958296262,81.33976958296262,81.37107574997935,None,0,81.37107574997935,81.37107574997935,81.37107574997935,81.37107574997935,81.67139220796525,81.67139220796525,81.67139220796525,81.67139220796525,81.67139220796525,81.67139220796525,81.67139220796525,81.67139220796525,82.00805891596247,82.00805891596247,82.00805891596247,82.00805891596247,testl,2023-06-27_19h11.17.272,Pattern_1,2022.2.4,None,
game1/slf11.xlsx,game1/obs11.xlsx,game1/test11.xlsx,,,,,,,,,,,,,,,,,,1,3,1,2,0,0,0,0,,,,,,,,,,,,,0,16,16,16,,,,,,,,,,,,,,,,,,,,,,,,,,,,,,,,,,,,,,,,,,,,,,,,,,,,,,,,,,,,,,,,,,,82.00805891596247,82.29228454100667,82.29228454100667,82.29228454100667,82.58997820800869,82.58997820800869,82.58997820800869,82.60926412499975,None,0,82.60926412499975,82.60926412499975,82.60926412499975,82.60926412499975,82.92317941598594,82.92317941598594,82.92317941598594,82.92317941598594,82.92317941598594,82.92317941598594,82.92317941598594,82.92317941598594,83.26145291602006,83.26145291602006,83.26145291602006,83.26145291602006,testl,2023-06-27_19h11.17.272,Pattern_1,2022.2.4,None,
game1/slf11.xlsx,game1/obs11.xlsx,game1/test11.xlsx,,,,,,,,,,,,,,,,,,3,5,0,2,0,0,0,0,,,,,,,,,,,,,0,17,17,17,,,,,,,,,,,,,,,,,,,,,,,,,,,,,,,,,,,,,,,,,,,,,,,,,,,,,,,,,,,,,,,,,,,83.26145291602006,83.54300170799252,83.54300170799252,83.54300170799252,83.83981520798989,83.83981520798989,83.83981520798989,83.87222458299948,None,0,83.87222458299948,83.87222458299948,83.87222458299948,83.87222458299948,84.17266533296788,84.17266533296788,84.17266533296788,84.17266533296788,84.17266533296788,84.17266533296788,84.17266533296788,84.17266533296788,84.51047316601034,84.51047316601034,84.51047316601034,84.51047316601034,testl,2023-06-27_19h11.17.272,Pattern_1,2022.2.4,None,
game1/slf11.xlsx,game1/obs11.xlsx,game1/test11.xlsx,,,,,,,,,,,,,,,,,,2,1,2,1,0,0,0,0,,,,,,,,,,,,,0,18,18,18,,,,,,,,,,,,,,,,,,,,,,,,,,,,,,,,,,,,,,,,,,,,,,,,,,,,,,,,,,,,,,,,,,,84.51047316601034,84.79239095799858,84.79239095799858,84.79239095799858,85.08972899999935,85.08972899999935,85.08972899999935,85.12109441601206,None,0,85.12109441601206,85.12109441601206,85.12109441601206,85.12109441601206,85.42109474999597,85.42109474999597,85.42109474999597,85.42109474999597,85.42109474999597,85.42109474999597,85.42109474999597,85.42109474999597,85.7607535829884,85.7607535829884,85.7607535829884,85.7607535829884,testl,2023-06-27_19h11.17.272,Pattern_1,2022.2.4,None,
game1/slf11.xlsx,game1/obs11.xlsx,game1/test11.xlsx,,,,,,,,,,,,,,,,,,4,3,2,2,0,0,0,0,,,,,,,,,,,,,0,19,19,19,,,,,,,,,,,,,,,,,,,,,,,,,,,,,,,,,,,,,,,,,,,,,,,,,,,,,,,,,,,,,,,,,,,85.7607535829884,86.04250112501904,86.04250112501904,86.04250112501904,86.33964829100296,86.33964829100296,86.33964829100296,86.3710679159849,None,0,86.3710679159849,86.3710679159849,86.3710679159849,86.3710679159849,86.67112224997254,86.67112224997254,86.67112224997254,86.67112224997254,86.67112224997254,86.67112224997254,86.67112224997254,86.67112224997254,87.03355900000315,87.03355900000315,87.03355900000315,87.03355900000315,testl,2023-06-27_19h11.17.272,Pattern_1,2022.2.4,None,
game1/slf11.xlsx,game1/obs11.xlsx,game1/test11.xlsx,,,,,,,,,,,,,,,,,,3,1,1,2,0,0,0,0,,,,,,,,,,,,,0,20,20,20,,,,,,,,,,,,,,,,,,,,,,,,,,,,,,,,,,,,,,,,,,,,,,,,,,,,,,,,,,,,,,,,,,,87.03355900000315,87.30897787498543,87.30897787498543,87.30897787498543,87.60632249998162,87.60632249998162,87.60632249998162,87.63772141601657,None,0,87.63772141601657,87.63772141601657,87.63772141601657,87.63772141601657,87.93938008300029,87.93938008300029,87.93938008300029,87.93938008300029,87.93938008300029,87.93938008300029,87.93938008300029,87.93938008300029,88.27893429098185,88.27893429098185,88.27893429098185,88.27893429098185,testl,2023-06-27_19h11.17.272,Pattern_1,2022.2.4,None,
game1/slf11.xlsx,game1/obs11.xlsx,game1/test11.xlsx,,,,,,,,,,,,,,,,,,1,2,1,2,0,0,0,0,,,,,,,,,,,,,0,21,21,21,,,,,,,,,,,,,,,,,,,,,,,,,,,,,,,,,,,,,,,,,,,,,,,,,,,,,,,,,,,,,,,,,,,88.27893429098185,88.55877608299488,88.55877608299488,88.55877608299488,88.85663866600953,88.85663866600953,88.85663866600953,88.8929394580191,None,0,88.8929394580191,88.8929394580191,88.8929394580191,88.8929394580191,89.20644458301831,89.20644458301831,89.20644458301831,89.20644458301831,89.20644458301831,89.20644458301831,89.20644458301831,89.20644458301831,89.54706383298617,89.54706383298617,89.54706383298617,89.54706383298617,testl,2023-06-27_19h11.17.272,Pattern_1,2022.2.4,None,
,,,,,,,,,,,,,,,,,,,,,,,,,,,,,,,,,,,,,,,,,,,,,,,,,,,,,,,,,,,,,,,,,,,,,,,,,,,,,,,,,,,,,,,,,,,,,,,,,,,,,,,,,,,,,,89.54706383298617,,,,,,,,,,,,,,,,,,,,,,,,,,,,,,,
