slf_file,obs_file,test_file,slf_condition,slf_pair_pat,slf_order_pat,slf_reward_left,slf_reward_right,obs_condition,obs_pair_pat,obs_order_pat,obs_pos_chosen,obs_conf,obs_reward,obs_img_time,obs_conf_time,test_condition,test_pair_pat,test_order_pat,BlockLoop.thisRepN,BlockLoop.thisTrialN,BlockLoop.thisN,BlockLoop.thisIndex,SlfSequence.thisRepN,SlfSequence.thisTrialN,SlfSequence.thisN,SlfSequence.thisIndex,SlfSkip.thisRepN,SlfSkip.thisTrialN,SlfSkip.thisN,SlfSkip.thisIndex,ObsSequence.thisRepN,ObsSequence.thisTrialN,ObsSequence.thisN,ObsSequence.thisIndex,TestSequence.thisRepN,TestSequence.thisTrialN,TestSequence.thisN,TestSequence.thisIndex,TestSkip.thisRepN,TestSkip.thisTrialN,TestSkip.thisN,TestSkip.thisIndex,STANDBY_TEXT.started,STANDBY_RESP.started,STANDBY_RESP.keys,STANDBY_RESP.rt,SLF_INSTR.started,SLF_INSTR.stopped,SLF_FIX1.started,SLF_IMG_LEFT.started,SLF_IMG_RIGHT.started,SLF_IMG_RESP.started,SLF_IMG_LEFT.stopped,SLF_IMG_RIGHT.stopped,SLF_IMG_RESP.stopped,SLF_FIX1.stopped,SLF_IMG_RESP.keys,SLF_IMG_RESP.corr,SLF_FIX2.started,SLF_IMGFB_FRAME.started,SLF_IMGFB_IMG_LEFT.started,SLF_IMGFB_IMG_RIGHT.started,SLF_FIX2.stopped,SLF_IMGFB_FRAME.stopped,SLF_IMGFB_IMG_LEFT.stopped,SLF_IMGFB_IMG_RIGHT.stopped,SLF_REWARD_FRAME.started,SLF_REWARD_IMG_LEFT.started,SLF_REWARD_IMG_RIGHT.started,SLF_REWARD_TEXT.started,SLF_REWARD_FRAME.stopped,SLF_REWARD_IMG_LEFT.stopped,SLF_REWARD_IMG_RIGHT.stopped,SLF_REWARD_TEXT.stopped,OBS_INSTR.started,OBS_FIX.started,OBS_IMG_LEFT.started,OBS_IMG_RIGHT.started,OBS_IMGFB_FRAME.started,OBS_IMGFB_FRAME.stopped,OBS_IMG_LEFT.stopped,OBS_IMG_RIGHT.stopped,OBS_FIX.stopped,OBS_CONF_LOW_BOX.started,OBS_CONF_LOW_TEXT.started,OBS_CONF_HIGH_BOX.started,OBS_CONF_HIGH_TEXT.started,OBS_CONFFB_FRAME.started,OBS_CONFFB_FRAME.stopped,OBS_CONF_LOW_BOX.stopped,OBS_CONF_LOW_TEXT.stopped,OBS_CONF_HIGH_BOX.stopped,OBS_CONF_HIGH_TEXT.stopped,OBS_REWARD_FRAME.started,OBS_REWARD_IMG_LEFT.started,OBS_REWARD_IMG_RIGHT.started,OBS_REWARD_TEXT.started,OBS_REWARD_FRAME.stopped,OBS_REWARD_IMG_LEFT.stopped,OBS_REWARD_IMG_RIGHT.stopped,OBS_REWARD_TEXT.stopped,TEST_INSTR.started,TEST_FIX1.started,TEST_IMG_LEFT.started,TEST_IMG_RIGHT.started,TEST_IMG_RESP.started,TEST_IMG_LEFT.stopped,TEST_IMG_RIGHT.stopped,TEST_IMG_RESP.stopped,TEST_FIX1.stopped,TEST_IMG_RESP.keys,TEST_IMG_RESP.corr,TEST_FIX2.started,TEST_IMGFB_FRAME.started,TEST_IMGFB_IMG_LEFT.started,TEST_IMGFB_IMG_RIGHT.started,TEST_FIX2.stopped,TEST_IMGFB_FRAME.stopped,TEST_IMGFB_IMG_LEFT.stopped,TEST_IMGFB_IMG_RIGHT.stopped,TEST_REWARD_FRAME.started,TEST_REWARD_IMG_LEFT.started,TEST_REWARD_IMG_RIGHT.started,TEST_REWARD_TEXT.started,TEST_REWARD_FRAME.stopped,TEST_REWARD_IMG_LEFT.stopped,TEST_REWARD_IMG_RIGHT.stopped,TEST_REWARD_TEXT.stopped,BLOCK_REST_TEXT.started,BLOCK_REST_SKIP.started,BLOCK_REST_SKIP.keys,BLOCK_REST_SKIP.rt,APPRECIATION.started,participant,date,expName,psychopyVersion,frameRate,
,,,,,,,,,,,,,,,,,,,,,,,,,,,,,,,,,,,,,,,,,,,13.930468875041697,13.930468875041697,space,1.9052435819758102,,,,,,,,,,,,,,,,,,,,,,,,,,,,,,,,,,,,,,,,,,,,,,,,,,,,,,,,,,,,,,,,,,,,,,,,,,,,,,,,,,,,,,,,testh,2023-06-23_19h51.56.103,Pattern_1,2022.2.4,None,
slf11.xlsx,obs14.xlsx,test11.xlsx,0,1,1,30,40,,,,,,,,,,,,0,0,0,0,0,0,0,0,,,,,,,,,,,,,,,,,,,,,18.868548583996017,20.88778666703729,20.88778666703729,20.95301170903258,20.95301170903258,20.95301170903258,21.049554500030354,21.049554500030354,21.049554500030354,21.1035120000015,None,0,21.1035120000015,21.1035120000015,21.1035120000015,21.1035120000015,21.218338292033877,21.218338292033877,21.218338292033877,21.218338292033877,21.218338292033877,21.218338292033877,21.218338292033877,21.218338292033877,21.329685917007737,21.329685917007737,21.329685917007737,21.329685917007737,,,,,,,,,,,,,,,,,,,,,,,,,,,,,,,,,,,,,,,,,,,,,,,,,,,,,,,,,,,,testh,2023-06-23_19h51.56.103,Pattern_1,2022.2.4,None,
slf11.xlsx,obs14.xlsx,test11.xlsx,0,2,2,50,40,,,,,,,,,,,,0,0,0,0,0,1,1,1,,,,,,,,,,,,,,,,,,,,,,,21.329685917007737,21.416165542032104,21.416165542032104,21.416165542032104,21.501840834040195,21.501840834040195,21.501840834040195,21.52865833399119,None,0,21.52865833399119,21.52865833399119,21.52865833399119,21.52865833399119,21.629017625004053,21.629017625004053,21.629017625004053,21.629017625004053,21.629017625004053,21.629017625004053,21.629017625004053,21.629017625004053,21.74361454200698,21.74361454200698,21.74361454200698,21.74361454200698,,,,,,,,,,,,,,,,,,,,,,,,,,,,,,,,,,,,,,,,,,,,,,,,,,,,,,,,,,,,testh,2023-06-23_19h51.56.103,Pattern_1,2022.2.4,None,
slf11.xlsx,obs14.xlsx,test11.xlsx,0,3,1,50,30,,,,,,,,,,,,0,0,0,0,0,2,2,2,,,,,,,,,,,,,,,,,,,,,,,21.74361454200698,21.818768249999266,21.818768249999266,21.818768249999266,21.91616583400173,21.91616583400173,21.91616583400173,21.94512233400019,None,0,21.94512233400019,21.94512233400019,21.94512233400019,21.94512233400019,22.04539958399255,22.04539958399255,22.04539958399255,22.04539958399255,22.04539958399255,22.04539958399255,22.04539958399255,22.04539958399255,22.160478625039104,22.160478625039104,22.160478625039104,22.160478625039104,,,,,,,,,,,,,,,,,,,,,,,,,,,,,,,,,,,,,,,,,,,,,,,,,,,,,,,,,,,,testh,2023-06-23_19h51.56.103,Pattern_1,2022.2.4,None,
slf11.xlsx,obs14.xlsx,test11.xlsx,0,2,1,40,50,,,,,,,,,,,,0,0,0,0,0,3,3,3,,,,,,,,,,,,,,,,,,,,,,,22.160478625039104,22.23571370902937,22.23571370902937,22.23571370902937,22.332861334027257,22.332861334027257,22.332861334027257,22.362098791985773,None,0,22.362098791985773,22.362098791985773,22.362098791985773,22.362098791985773,22.462161125033163,22.462161125033163,22.462161125033163,22.462161125033163,22.462161125033163,22.462161125033163,22.462161125033163,22.462161125033163,22.578262375027407,22.578262375027407,22.578262375027407,22.578262375027407,,,,,,,,,,,,,,,,,,,,,,,,,,,,,,,,,,,,,,,,,,,,,,,,,,,,,,,,,,,,testh,2023-06-23_19h51.56.103,Pattern_1,2022.2.4,None,
slf11.xlsx,obs14.xlsx,test11.xlsx,0,1,2,40,30,,,,,,,,,,,,0,0,0,0,0,4,4,4,,,,,,,,,,,,,,,,,,,,,,,22.578262375027407,22.652100625040475,22.652100625040475,22.652100625040475,22.74971187498886,22.74971187498886,22.74971187498886,22.779485500010196,None,0,22.779485500010196,22.779485500010196,22.779485500010196,22.779485500010196,22.879559875000268,22.879559875000268,22.879559875000268,22.879559875000268,22.879559875000268,22.879559875000268,22.879559875000268,22.879559875000268,22.99542895902414,22.99542895902414,22.99542895902414,22.99542895902414,,,,,,,,,,,,,,,,,,,,,,,,,,,,,,,,,,,,,,,,,,,,,,,,,,,,,,,,,,,,testh,2023-06-23_19h51.56.103,Pattern_1,2022.2.4,None,
slf11.xlsx,obs14.xlsx,test11.xlsx,0,3,2,30,50,,,,,,,,,,,,0,0,0,0,0,5,5,5,,,,,,,,,,,,,,,,,,,,,,,22.99542895902414,23.082959791994654,23.082959791994654,23.082959791994654,23.168899292009883,23.168899292009883,23.168899292009883,23.195049834030215,None,0,23.195049834030215,23.195049834030215,23.195049834030215,23.195049834030215,23.295933249988593,23.295933249988593,23.295933249988593,23.295933249988593,23.295933249988593,23.295933249988593,23.295933249988593,23.295933249988593,23.41247070900863,23.41247070900863,23.41247070900863,23.41247070900863,,,,,,,,,,,,,,,,,,,,,,,,,,,,,,,,,,,,,,,,,,,,,,,,,,,,,,,,,,,,testh,2023-06-23_19h51.56.103,Pattern_1,2022.2.4,None,
slf11.xlsx,obs14.xlsx,test11.xlsx,0,1,1,30,40,,,,,,,,,,,,0,0,0,0,0,6,6,6,,,,,,,,,,,,,,,,,,,,,,,23.41247070900863,23.485426250030287,23.485426250030287,23.485426250030287,23.582844541990198,23.582844541990198,23.582844541990198,23.612370542017743,None,0,23.612370542017743,23.612370542017743,23.612370542017743,23.612370542017743,23.712864125031047,23.712864125031047,23.712864125031047,23.712864125031047,23.712864125031047,23.712864125031047,23.712864125031047,23.712864125031047,23.82917462498881,23.82917462498881,23.82917462498881,23.82917462498881,,,,,,,,,,,,,,,,,,,,,,,,,,,,,,,,,,,,,,,,,,,,,,,,,,,,,,,,,,,,testh,2023-06-23_19h51.56.103,Pattern_1,2022.2.4,None,
slf11.xlsx,obs14.xlsx,test11.xlsx,0,3,1,50,30,,,,,,,,,,,,0,0,0,0,0,7,7,7,,,,,,,,,,,,,,,,,,,,,,,23.82917462498881,23.91618812503293,23.91618812503293,23.91618812503293,24.002477875037584,24.002477875037584,24.002477875037584,24.02826587500749,None,0,24.02826587500749,24.02826587500749,24.02826587500749,24.02826587500749,24.128558000025805,24.128558000025805,24.128558000025805,24.128558000025805,24.128558000025805,24.128558000025805,24.128558000025805,24.128558000025805,24.246486124990042,24.246486124990042,24.246486124990042,24.246486124990042,,,,,,,,,,,,,,,,,,,,,,,,,,,,,,,,,,,,,,,,,,,,,,,,,,,,,,,,,,,,testh,2023-06-23_19h51.56.103,Pattern_1,2022.2.4,None,
slf11.xlsx,obs14.xlsx,test11.xlsx,0,2,2,50,40,,,,,,,,,,,,0,0,0,0,0,8,8,8,,,,,,,,,,,,,,,,,,,,,,,24.246486124990042,24.3329466250143,24.3329466250143,24.3329466250143,24.418831416987814,24.418831416987814,24.418831416987814,24.44499916699715,None,0,24.44499916699715,24.44499916699715,24.44499916699715,24.44499916699715,24.54547187499702,24.54547187499702,24.54547187499702,24.54547187499702,24.54547187499702,24.54547187499702,24.54547187499702,24.54547187499702,24.674847375019453,24.674847375019453,24.674847375019453,24.674847375019453,,,,,,,,,,,,,,,,,,,,,,,,,,,,,,,,,,,,,,,,,,,,,,,,,,,,,,,,,,,,testh,2023-06-23_19h51.56.103,Pattern_1,2022.2.4,None,
slf11.xlsx,obs14.xlsx,test11.xlsx,,,,,,0,1,1,left,low,0,0.1,0.1,,,,0,0,0,0,,,,,,,,,0,0,0,0,,,,,,,,,,,,,,,,,,,,,,,,,,,,,,,,,,,,,,,,,24.674847375019453,26.676734459004365,26.749544500024058,26.749544500024058,26.849541917035822,26.93564525002148,26.93564525002148,26.93564525002148,26.970016000035685,26.970016000035685,26.970016000035685,26.970016000035685,26.970016000035685,27.0529040840338,27.149792709038593,27.17504708399065,27.17504708399065,27.17504708399065,27.17504708399065,27.17504708399065,27.17504708399065,27.17504708399065,27.17504708399065,27.306433208985254,27.306433208985254,27.306433208985254,27.306433208985254,,,,,,,,,,,,,,,,,,,,,,,,,,,,,,,,,testh,2023-06-23_19h51.56.103,Pattern_1,2022.2.4,None,
slf11.xlsx,obs14.xlsx,test11.xlsx,,,,,,0,2,2,right,high,0,0.1,0.1,,,,0,0,0,0,,,,,,,,,0,1,1,1,,,,,,,,,,,,,,,,,,,,,,,,,,,,,,,,,,,,,,,,,,27.306433208985254,27.385087250033394,27.385087250033394,27.485449167026673,27.582878334040288,27.582878334040288,27.582878334040288,27.60250741703203,27.60250741703203,27.60250741703203,27.60250741703203,27.60250741703203,27.68615270900773,27.78312158404151,27.80278145900229,27.80278145900229,27.80278145900229,27.80278145900229,27.80278145900229,27.80278145900229,27.80278145900229,27.80278145900229,27.92086037498666,27.92086037498666,27.92086037498666,27.92086037498666,,,,,,,,,,,,,,,,,,,,,,,,,,,,,,,,,testh,2023-06-23_19h51.56.103,Pattern_1,2022.2.4,None,
slf11.xlsx,obs14.xlsx,test11.xlsx,,,,,,0,3,1,left,low,0,0.1,0.1,,,,0,0,0,0,,,,,,,,,0,2,2,2,,,,,,,,,,,,,,,,,,,,,,,,,,,,,,,,,,,,,,,,,,27.92086037498666,28.00234533404,28.00234533404,28.102173042017967,28.199619917024393,28.199619917024393,28.199619917024393,28.219679500034545,28.219679500034545,28.219679500034545,28.219679500034545,28.219679500034545,28.302713125012815,28.399567125015892,28.416146792005748,28.416146792005748,28.416146792005748,28.416146792005748,28.416146792005748,28.416146792005748,28.416146792005748,28.416146792005748,28.53568341699429,28.53568341699429,28.53568341699429,28.53568341699429,,,,,,,,,,,,,,,,,,,,,,,,,,,,,,,,,testh,2023-06-23_19h51.56.103,Pattern_1,2022.2.4,None,
slf11.xlsx,obs14.xlsx,test11.xlsx,,,,,,0,2,1,right,high,0,0.1,0.1,,,,0,0,0,0,,,,,,,,,0,3,3,3,,,,,,,,,,,,,,,,,,,,,,,,,,,,,,,,,,,,,,,,,,28.53568341699429,28.616229917039163,28.616229917039163,28.71967683400726,28.816338083997834,28.803333416988607,28.803333416988607,28.833103459037375,28.833103459037375,28.833103459037375,28.833103459037375,28.833103459037375,28.916271750000305,29.002176000038162,29.030234000005294,29.030234000005294,29.030234000005294,29.030234000005294,29.030234000005294,29.030234000005294,29.030234000005294,29.030234000005294,29.1512220420409,29.1512220420409,29.1512220420409,29.1512220420409,,,,,,,,,,,,,,,,,,,,,,,,,,,,,,,,,testh,2023-06-23_19h51.56.103,Pattern_1,2022.2.4,None,
slf11.xlsx,obs14.xlsx,test11.xlsx,,,,,,0,1,2,left,low,0,0.1,0.1,,,,0,0,0,0,,,,,,,,,0,4,4,4,,,,,,,,,,,,,,,,,,,,,,,,,,,,,,,,,,,,,,,,,,29.1512220420409,29.2360458340263,29.2360458340263,29.336058084038086,29.432917417027056,29.432917417027056,29.432917417027056,29.449494042026345,29.449494042026345,29.449494042026345,29.449494042026345,29.449494042026345,29.532962833996862,29.61914829199668,29.645590291998815,29.645590291998815,29.645590291998815,29.645590291998815,29.645590291998815,29.645590291998815,29.645590291998815,29.645590291998815,29.767028834030498,29.767028834030498,29.767028834030498,29.767028834030498,,,,,,,,,,,,,,,,,,,,,,,,,,,,,,,,,testh,2023-06-23_19h51.56.103,Pattern_1,2022.2.4,None,
slf11.xlsx,obs14.xlsx,test11.xlsx,,,,,,0,3,2,right,high,0,0.1,0.1,,,,0,0,0,0,,,,,,,,,0,5,5,5,,,,,,,,,,,,,,,,,,,,,,,,,,,,,,,,,,,,,,,,,,29.767028834030498,29.852105250000022,29.852105250000022,29.952071250008885,30.049534084042534,30.049534084042534,30.049534084042534,30.052450708986726,30.052450708986726,30.052450708986726,30.052450708986726,30.052450708986726,30.135662999993656,30.23287825001171,30.24948508403031,30.24948508403031,30.24948508403031,30.24948508403031,30.24948508403031,30.24948508403031,30.24948508403031,30.24948508403031,30.36885612498736,30.36885612498736,30.36885612498736,30.36885612498736,,,,,,,,,,,,,,,,,,,,,,,,,,,,,,,,,testh,2023-06-23_19h51.56.103,Pattern_1,2022.2.4,None,
slf11.xlsx,obs14.xlsx,test11.xlsx,,,,,,0,1,1,left,low,0,0.1,0.1,,,,0,0,0,0,,,,,,,,,0,6,6,6,,,,,,,,,,,,,,,,,,,,,,,,,,,,,,,,,,,,,,,,,,30.36885612498736,30.45254508400103,30.45254508400103,30.55249112501042,30.64954370900523,30.64954370900523,30.64954370900523,30.66618629201548,30.66618629201548,30.66618629201548,30.66618629201548,30.66618629201548,30.74957683403045,30.835518042033073,30.862082875042688,30.862082875042688,30.862082875042688,30.862082875042688,30.862082875042688,30.862082875042688,30.862082875042688,30.862082875042688,30.98473395901965,30.98473395901965,30.98473395901965,30.98473395901965,,,,,,,,,,,,,,,,,,,,,,,,,,,,,,,,,testh,2023-06-23_19h51.56.103,Pattern_1,2022.2.4,None,
slf11.xlsx,obs14.xlsx,test11.xlsx,,,,,,0,3,1,right,high,0,0.1,0.1,,,,0,0,0,0,,,,,,,,,0,7,7,7,,,,,,,,,,,,,,,,,,,,,,,,,,,,,,,,,,,,,,,,,,30.98473395901965,31.069067875039764,31.069067875039764,31.168773624987807,31.266234959010035,31.266234959010035,31.266234959010035,31.28289075003704,31.28289075003704,31.28289075003704,31.28289075003704,31.28289075003704,31.366229417035356,31.452018334006425,31.477989334031008,31.477989334031008,31.477989334031008,31.477989334031008,31.477989334031008,31.477989334031008,31.477989334031008,31.477989334031008,31.60362291702768,31.60362291702768,31.60362291702768,31.60362291702768,,,,,,,,,,,,,,,,,,,,,,,,,,,,,,,,,testh,2023-06-23_19h51.56.103,Pattern_1,2022.2.4,None,
slf11.xlsx,obs14.xlsx,test11.xlsx,,,,,,0,2,2,left,low,0,0.1,0.1,,,,0,0,0,0,,,,,,,,,0,8,8,8,,,,,,,,,,,,,,,,,,,,,,,,,,,,,,,,,,,,,,,,,,31.60362291702768,31.685282084043138,31.685282084043138,31.785743084037676,31.882862084021326,31.882862084021326,31.882862084021326,31.90242787502939,31.90242787502939,31.90242787502939,31.90242787502939,31.90242787502939,31.98568612500094,32.08289154199883,32.099490875029005,32.099490875029005,32.099490875029005,32.099490875029005,32.099490875029005,32.099490875029005,32.099490875029005,32.099490875029005,32.226918625005055,32.226918625005055,32.226918625005055,32.226918625005055,,,,,,,,,,,,,,,,,,,,,,,,,,,,,,,,,testh,2023-06-23_19h51.56.103,Pattern_1,2022.2.4,None,
slf11.xlsx,obs14.xlsx,test11.xlsx,,,,,,,,,,,,,,1,1,1,0,0,0,0,,,,,,,,,,,,,0,0,0,0,,,,,,,,,,,,,,,,,,,,,,,,,,,,,,,,,,,,,,,,,,,,,,,,,,,,,,,,,,,,,,,,32.226918625005055,34.242571209033486,34.30242916702991,34.30242916702991,34.30242916702991,34.399543999985326,34.399543999985326,34.399543999985326,34.44897458399646,None,0,34.44897458399646,34.44897458399646,34.44897458399646,34.44897458399646,34.55252358398866,34.55252358398866,34.55252358398866,34.55252358398866,34.55252358398866,34.55252358398866,34.55252358398866,34.55252358398866,34.79267937503755,34.79267937503755,34.79267937503755,34.79267937503755,,,,,,testh,2023-06-23_19h51.56.103,Pattern_1,2022.2.4,None,
slf11.xlsx,obs14.xlsx,test11.xlsx,,,,,,,,,,,,,,1,1,2,0,0,0,0,,,,,,,,,,,,,0,1,1,1,,,,,,,,,,,,,,,,,,,,,,,,,,,,,,,,,,,,,,,,,,,,,,,,,,,,,,,,,,,,,,,,,34.79267937503755,34.86909679201199,34.86909679201199,34.86909679201199,34.96630979201291,34.96630979201291,34.96630979201291,34.99830525001744,None,0,34.99830525001744,34.99830525001744,34.99830525001744,34.99830525001744,35.09920995903667,35.09920995903667,35.09920995903667,35.09920995903667,35.09920995903667,35.09920995903667,35.09920995903667,35.09920995903667,35.2309916249942,35.2309916249942,35.2309916249942,35.2309916249942,,,,,,testh,2023-06-23_19h51.56.103,Pattern_1,2022.2.4,None,
slf11.xlsx,obs14.xlsx,test11.xlsx,,,,,,,,,,,,,,1,2,1,0,0,0,0,,,,,,,,,,,,,0,2,2,2,,,,,,,,,,,,,,,,,,,,,,,,,,,,,,,,,,,,,,,,,,,,,,,,,,,,,,,,,,,,,,,,,35.2309916249942,35.3023060419946,35.3023060419946,35.3023060419946,35.39978937502019,35.39978937502019,35.39978937502019,35.429166792018805,None,0,35.429166792018805,35.429166792018805,35.429166792018805,35.429166792018805,35.52908012503758,35.52908012503758,35.52908012503758,35.52908012503758,35.52908012503758,35.52908012503758,35.52908012503758,35.52908012503758,35.6583402500255,35.6583402500255,35.6583402500255,35.6583402500255,,,,,,testh,2023-06-23_19h51.56.103,Pattern_1,2022.2.4,None,
slf11.xlsx,obs14.xlsx,test11.xlsx,,,,,,,,,,,,,,1,2,2,0,0,0,0,,,,,,,,,,,,,0,3,3,3,,,,,,,,,,,,,,,,,,,,,,,,,,,,,,,,,,,,,,,,,,,,,,,,,,,,,,,,,,,,,,,,,35.6583402500255,35.73570399999153,35.73570399999153,35.73570399999153,35.832899959001224,35.832899959001224,35.832899959001224,35.86208487499971,None,0,35.86208487499971,35.86208487499971,35.86208487499971,35.86208487499971,35.962763499992434,35.962763499992434,35.962763499992434,35.962763499992434,35.962763499992434,35.962763499992434,35.962763499992434,35.962763499992434,36.09199254203122,36.09199254203122,36.09199254203122,36.09199254203122,,,,,,testh,2023-06-23_19h51.56.103,Pattern_1,2022.2.4,None,
slf11.xlsx,obs14.xlsx,test11.xlsx,,,,,,,,,,,,,,1,3,1,0,0,0,0,,,,,,,,,,,,,0,4,4,4,,,,,,,,,,,,,,,,,,,,,,,,,,,,,,,,,,,,,,,,,,,,,,,,,,,,,,,,,,,,,,,,,36.09199254203122,36.168862459016964,36.168862459016964,36.168862459016964,36.26647991698701,36.26647991698701,36.26647991698701,36.29575416701846,None,0,36.29575416701846,36.29575416701846,36.29575416701846,36.29575416701846,36.39551316702273,36.39551316702273,36.39551316702273,36.39551316702273,36.39551316702273,36.39551316702273,36.39551316702273,36.39551316702273,36.52444408403244,36.52444408403244,36.52444408403244,36.52444408403244,,,,,,testh,2023-06-23_19h51.56.103,Pattern_1,2022.2.4,None,
slf11.xlsx,obs14.xlsx,test11.xlsx,,,,,,,,,,,,,,1,3,2,0,0,0,0,,,,,,,,,,,,,0,5,5,5,,,,,,,,,,,,,,,,,,,,,,,,,,,,,,,,,,,,,,,,,,,,,,,,,,,,,,,,,,,,,,,,,36.52444408403244,36.60214900004212,36.60214900004212,36.60214900004212,36.699582375003956,36.699582375003956,36.699582375003956,36.72876254201401,None,0,36.72876254201401,36.72876254201401,36.72876254201401,36.72876254201401,36.8286642919993,36.8286642919993,36.8286642919993,36.8286642919993,36.8286642919993,36.8286642919993,36.8286642919993,36.8286642919993,36.95751345902681,36.95751345902681,36.95751345902681,36.95751345902681,,,,,,testh,2023-06-23_19h51.56.103,Pattern_1,2022.2.4,None,
slf11.xlsx,obs14.xlsx,test11.xlsx,,,,,,,,,,,,,,2,1,1,0,0,0,0,,,,,,,,,,,,,0,6,6,6,,,,,,,,,,,,,,,,,,,,,,,,,,,,,,,,,,,,,,,,,,,,,,,,,,,,,,,,,,,,,,,,,36.95751345902681,37.036336667020805,37.036336667020805,37.036336667020805,37.132962417032104,37.132962417032104,37.132962417032104,37.16214166703867,None,0,37.16214166703867,37.16214166703867,37.16214166703867,37.16214166703867,37.268143708992284,37.268143708992284,37.268143708992284,37.268143708992284,37.268143708992284,37.268143708992284,37.268143708992284,37.268143708992284,37.39407629199559,37.39407629199559,37.39407629199559,37.39407629199559,,,,,,testh,2023-06-23_19h51.56.103,Pattern_1,2022.2.4,None,
slf11.xlsx,obs14.xlsx,test11.xlsx,,,,,,,,,,,,,,2,1,2,0,0,0,0,,,,,,,,,,,,,0,7,7,7,,,,,,,,,,,,,,,,,,,,,,,,,,,,,,,,,,,,,,,,,,,,,,,,,,,,,,,,,,,,,,,,,37.39407629199559,37.46914504200686,37.46914504200686,37.46914504200686,37.56620266701793,37.56620266701793,37.56620266701793,37.595507583988365,None,0,37.595507583988365,37.595507583988365,37.595507583988365,37.595507583988365,37.69568383402657,37.69568383402657,37.69568383402657,37.69568383402657,37.69568383402657,37.69568383402657,37.69568383402657,37.69568383402657,37.82584975002101,37.82584975002101,37.82584975002101,37.82584975002101,,,,,,testh,2023-06-23_19h51.56.103,Pattern_1,2022.2.4,None,
slf11.xlsx,obs14.xlsx,test11.xlsx,,,,,,,,,,,,,,2,2,1,0,0,0,0,,,,,,,,,,,,,0,8,8,8,,,,,,,,,,,,,,,,,,,,,,,,,,,,,,,,,,,,,,,,,,,,,,,,,,,,,,,,,,,,,,,,,37.82584975002101,37.902539125003386,37.902539125003386,37.902539125003386,37.99969104200136,37.99969104200136,37.99969104200136,38.03007050004089,None,0,38.03007050004089,38.03007050004089,38.03007050004089,38.03007050004089,38.13028025004314,38.13028025004314,38.13028025004314,38.13028025004314,38.13028025004314,38.13028025004314,38.13028025004314,38.13028025004314,38.25919987499947,38.25919987499947,38.25919987499947,38.25919987499947,,,,,,testh,2023-06-23_19h51.56.103,Pattern_1,2022.2.4,None,
slf11.xlsx,obs14.xlsx,test11.xlsx,,,,,,,,,,,,,,2,2,2,0,0,0,0,,,,,,,,,,,,,0,9,9,9,,,,,,,,,,,,,,,,,,,,,,,,,,,,,,,,,,,,,,,,,,,,,,,,,,,,,,,,,,,,,,,,,38.25919987499947,38.33627625001827,38.33627625001827,38.33627625001827,38.43524737498956,38.43524737498956,38.43524737498956,38.46359829202993,None,0,38.46359829202993,38.46359829202993,38.46359829202993,38.46359829202993,38.56367179204244,38.56367179204244,38.56367179204244,38.56367179204244,38.56367179204244,38.56367179204244,38.56367179204244,38.56367179204244,38.69190475001233,38.69190475001233,38.69190475001233,38.69190475001233,,,,,,testh,2023-06-23_19h51.56.103,Pattern_1,2022.2.4,None,
slf11.xlsx,obs14.xlsx,test11.xlsx,,,,,,,,,,,,,,2,3,1,0,0,0,0,,,,,,,,,,,,,0,10,10,10,,,,,,,,,,,,,,,,,,,,,,,,,,,,,,,,,,,,,,,,,,,,,,,,,,,,,,,,,,,,,,,,,38.69190475001233,38.76928562502144,38.76928562502144,38.76928562502144,38.866258417023346,38.866258417023346,38.866258417023346,38.89479804201983,None,0,38.89479804201983,38.89479804201983,38.89479804201983,38.89479804201983,38.99514995899517,38.99514995899517,38.99514995899517,38.99514995899517,38.99514995899517,38.99514995899517,38.99514995899517,38.99514995899517,39.12540629203431,39.12540629203431,39.12540629203431,39.12540629203431,,,,,,testh,2023-06-23_19h51.56.103,Pattern_1,2022.2.4,None,
slf11.xlsx,obs14.xlsx,test11.xlsx,,,,,,,,,,,,,,2,3,2,0,0,0,0,,,,,,,,,,,,,0,11,11,11,,,,,,,,,,,,,,,,,,,,,,,,,,,,,,,,,,,,,,,,,,,,,,,,,,,,,,,,,,,,,,,,,39.12540629203431,39.203018709027674,39.203018709027674,39.203018709027674,39.29957012500381,39.29957012500381,39.29957012500381,39.32823433401063,None,0,39.32823433401063,39.32823433401063,39.32823433401063,39.32823433401063,39.42851270904066,39.42851270904066,39.42851270904066,39.42851270904066,39.42851270904066,39.42851270904066,39.42851270904066,39.42851270904066,39.56038437504321,39.56038437504321,39.56038437504321,39.56038437504321,,,,,,testh,2023-06-23_19h51.56.103,Pattern_1,2022.2.4,None,
slf11.xlsx,obs14.xlsx,test11.xlsx,,,,,,,,,,,,,,3,4,0,0,0,0,0,,,,,,,,,,,,,0,12,12,12,,,,,,,,,,,,,,,,,,,,,,,,,,,,,,,,,,,,,,,,,,,,,,,,,,,,,,,,,,,,,,,,,39.56038437504321,39.635451334004756,39.635451334004756,39.635451334004756,39.732898416987155,39.732898416987155,39.732898416987155,39.76144708401989,None,0,39.76144708401989,39.76144708401989,39.76144708401989,39.76144708401989,39.86205987504218,39.86205987504218,39.86205987504218,39.86205987504218,39.86205987504218,39.86205987504218,39.86205987504218,39.86205987504218,39.994621584017295,39.994621584017295,39.994621584017295,39.994621584017295,,,,,,testh,2023-06-23_19h51.56.103,Pattern_1,2022.2.4,None,
slf11.xlsx,obs14.xlsx,test11.xlsx,,,,,,,,,,,,,,3,1,1,0,0,0,0,,,,,,,,,,,,,0,13,13,13,,,,,,,,,,,,,,,,,,,,,,,,,,,,,,,,,,,,,,,,,,,,,,,,,,,,,,,,,,,,,,,,,39.994621584017295,40.06893454201054,40.06893454201054,40.06893454201054,40.166286333987955,40.166286333987955,40.166286333987955,40.19664008403197,None,0,40.19664008403197,40.19664008403197,40.19664008403197,40.19664008403197,40.29687579203164,40.29687579203164,40.29687579203164,40.29687579203164,40.29687579203164,40.29687579203164,40.29687579203164,40.29687579203164,40.42875266703777,40.42875266703777,40.42875266703777,40.42875266703777,,,,,,testh,2023-06-23_19h51.56.103,Pattern_1,2022.2.4,None,
slf11.xlsx,obs14.xlsx,test11.xlsx,,,,,,,,,,,,,,3,3,2,0,0,0,0,,,,,,,,,,,,,0,14,14,14,,,,,,,,,,,,,,,,,,,,,,,,,,,,,,,,,,,,,,,,,,,,,,,,,,,,,,,,,,,,,,,,,40.42875266703777,40.50231987499865,40.50231987499865,40.50231987499865,40.59962908399757,40.59962908399757,40.59962908399757,40.62941479199799,None,0,40.62941479199799,40.62941479199799,40.62941479199799,40.62941479199799,40.72948383400217,40.72948383400217,40.72948383400217,40.72948383400217,40.72948383400217,40.72948383400217,40.72948383400217,40.72948383400217,40.861346999998204,40.861346999998204,40.861346999998204,40.861346999998204,,,,,,testh,2023-06-23_19h51.56.103,Pattern_1,2022.2.4,None,
slf11.xlsx,obs14.xlsx,test11.xlsx,,,,,,,,,,,,,,3,1,2,0,0,0,0,,,,,,,,,,,,,0,15,15,15,,,,,,,,,,,,,,,,,,,,,,,,,,,,,,,,,,,,,,,,,,,,,,,,,,,,,,,,,,,,,,,,,40.861346999998204,40.93542620900553,40.93542620900553,40.93542620900553,41.03294408402871,41.03294408402871,41.03294408402871,41.06164733401965,None,0,41.06164733401965,41.06164733401965,41.06164733401965,41.06164733401965,41.16208058403572,41.16208058403572,41.16208058403572,41.16208058403572,41.16208058403572,41.16208058403572,41.16208058403572,41.16208058403572,41.296535875007976,41.296535875007976,41.296535875007976,41.296535875007976,,,,,,testh,2023-06-23_19h51.56.103,Pattern_1,2022.2.4,None,
slf11.xlsx,obs14.xlsx,test11.xlsx,,,,,,,,,,,,,,3,5,0,0,0,0,0,,,,,,,,,,,,,0,16,16,16,,,,,,,,,,,,,,,,,,,,,,,,,,,,,,,,,,,,,,,,,,,,,,,,,,,,,,,,,,,,,,,,,41.296535875007976,41.369002041989006,41.369002041989006,41.369002041989006,41.466251334000845,41.466251334000845,41.466251334000845,41.49666729202727,None,0,41.49666729202727,41.49666729202727,41.49666729202727,41.49666729202727,41.5967998750275,41.5967998750275,41.5967998750275,41.5967998750275,41.5967998750275,41.5967998750275,41.5967998750275,41.5967998750275,41.73013845901005,41.73013845901005,41.73013845901005,41.73013845901005,,,,,,testh,2023-06-23_19h51.56.103,Pattern_1,2022.2.4,None,
slf11.xlsx,obs14.xlsx,test11.xlsx,,,,,,,,,,,,,,3,2,1,0,0,0,0,,,,,,,,,,,,,0,17,17,17,,,,,,,,,,,,,,,,,,,,,,,,,,,,,,,,,,,,,,,,,,,,,,,,,,,,,,,,,,,,,,,,,41.73013845901005,41.816213292011525,41.816213292011525,41.816213292011525,41.90198295901064,41.90198295901064,41.90198295901064,41.92926562501816,None,0,41.92926562501816,41.92926562501816,41.92926562501816,41.92926562501816,42.029688584036194,42.029688584036194,42.029688584036194,42.029688584036194,42.029688584036194,42.029688584036194,42.029688584036194,42.029688584036194,42.162368958990555,42.162368958990555,42.162368958990555,42.162368958990555,,,,,,testh,2023-06-23_19h51.56.103,Pattern_1,2022.2.4,None,
slf11.xlsx,obs14.xlsx,test11.xlsx,,,,,,,,,,,,,,3,3,1,0,0,0,0,,,,,,,,,,,,,0,18,18,18,,,,,,,,,,,,,,,,,,,,,,,,,,,,,,,,,,,,,,,,,,,,,,,,,,,,,,,,,,,,,,,,,42.162368958990555,42.24955658399267,42.24955658399267,42.24955658399267,42.33537029201398,42.33537029201398,42.33537029201398,42.36083483399125,None,0,42.36083483399125,42.36083483399125,42.36083483399125,42.36083483399125,42.460943834041245,42.460943834041245,42.460943834041245,42.460943834041245,42.460943834041245,42.460943834041245,42.460943834041245,42.460943834041245,42.6011714169872,42.6011714169872,42.6011714169872,42.6011714169872,,,,,,testh,2023-06-23_19h51.56.103,Pattern_1,2022.2.4,None,
slf11.xlsx,obs14.xlsx,test11.xlsx,,,,,,,,,,,,,,3,2,2,0,0,0,0,,,,,,,,,,,,,0,19,19,19,,,,,,,,,,,,,,,,,,,,,,,,,,,,,,,,,,,,,,,,,,,,,,,,,,,,,,,,,,,,,,,,,42.6011714169872,42.68315204203827,42.68315204203827,42.68315204203827,42.76881666702684,42.76881666702684,42.76881666702684,42.799497792031616,None,0,42.799497792031616,42.799497792031616,42.799497792031616,42.799497792031616,42.896333375014365,42.896333375014365,42.896333375014365,42.896333375014365,42.896333375014365,42.896333375014365,42.896333375014365,42.896333375014365,43.03116037498694,43.03116037498694,43.03116037498694,43.03116037498694,,,,,,testh,2023-06-23_19h51.56.103,Pattern_1,2022.2.4,None,
slf11.xlsx,obs14.xlsx,test11.xlsx,,,,,,,,,,,,,,3,6,0,0,0,0,0,,,,,,,,,,,,,0,20,20,20,,,,,,,,,,,,,,,,,,,,,,,,,,,,,,,,,,,,,,,,,,,,,,,,,,,,,,,,,,,,,,,,,43.03116037498694,43.11629612499382,43.11629612499382,43.11629612499382,43.20208487502532,43.20208487502532,43.20208487502532,43.22865574999014,None,0,43.22865574999014,43.22865574999014,43.22865574999014,43.22865574999014,43.32897445902927,43.32897445902927,43.32897445902927,43.32897445902927,43.32897445902927,43.32897445902927,43.32897445902927,43.32897445902927,43.46451970899943,43.46451970899943,43.46451970899943,43.46451970899943,,,,,,testh,2023-06-23_19h51.56.103,Pattern_1,2022.2.4,None,
slf11.xlsx,obs14.xlsx,test11.xlsx,,,,,,,,,,,,,,4,4,0,0,0,0,0,,,,,,,,,,,,,0,21,21,21,,,,,,,,,,,,,,,,,,,,,,,,,,,,,,,,,,,,,,,,,,,,,,,,,,,,,,,,,,,,,,,,,43.46451970899943,43.552327167009935,43.552327167009935,43.552327167009935,43.64956579200225,43.64956579200225,43.64956579200225,43.66131154203322,None,0,43.66131154203322,43.66131154203322,43.66131154203322,43.66131154203322,43.76164670899743,43.76164670899743,43.76164670899743,43.76164670899743,43.76164670899743,43.76164670899743,43.76164670899743,43.76164670899743,43.89806575002149,43.89806575002149,43.89806575002149,43.89806575002149,,,,,,testh,2023-06-23_19h51.56.103,Pattern_1,2022.2.4,None,
slf11.xlsx,obs14.xlsx,test11.xlsx,,,,,,,,,,,,,,4,1,1,0,0,0,0,,,,,,,,,,,,,0,22,22,22,,,,,,,,,,,,,,,,,,,,,,,,,,,,,,,,,,,,,,,,,,,,,,,,,,,,,,,,,,,,,,,,,43.89806575002149,43.98549908399582,43.98549908399582,43.98549908399582,44.08294766698964,44.08294766698964,44.08294766698964,44.09493091702461,None,0,44.09493091702461,44.09493091702461,44.09493091702461,44.09493091702461,44.19523283402668,44.19523283402668,44.19523283402668,44.19523283402668,44.19523283402668,44.19523283402668,44.19523283402668,44.19523283402668,44.331980624992866,44.331980624992866,44.331980624992866,44.331980624992866,,,,,,testh,2023-06-23_19h51.56.103,Pattern_1,2022.2.4,None,
slf11.xlsx,obs14.xlsx,test11.xlsx,,,,,,,,,,,,,,4,3,2,0,0,0,0,,,,,,,,,,,,,0,23,23,23,,,,,,,,,,,,,,,,,,,,,,,,,,,,,,,,,,,,,,,,,,,,,,,,,,,,,,,,,,,,,,,,,44.331980624992866,44.41878300003009,44.41878300003009,44.41878300003009,44.5163234170177,44.5163234170177,44.5163234170177,44.527569208992645,None,0,44.527569208992645,44.527569208992645,44.527569208992645,44.527569208992645,44.62782120902557,44.62782120902557,44.62782120902557,44.62782120902557,44.62782120902557,44.62782120902557,44.62782120902557,44.62782120902557,44.768066708988044,44.768066708988044,44.768066708988044,44.768066708988044,,,,,,testh,2023-06-23_19h51.56.103,Pattern_1,2022.2.4,None,
slf11.xlsx,obs14.xlsx,test11.xlsx,,,,,,,,,,,,,,4,1,2,0,0,0,0,,,,,,,,,,,,,0,24,24,24,,,,,,,,,,,,,,,,,,,,,,,,,,,,,,,,,,,,,,,,,,,,,,,,,,,,,,,,,,,,,,,,,44.768066708988044,44.85204304201761,44.85204304201761,44.85204304201761,44.949615959019866,44.949615959019866,44.949615959019866,44.96606562501984,None,0,44.96606562501984,44.96606562501984,44.96606562501984,44.96606562501984,45.06360500003211,45.06360500003211,45.06360500003211,45.06360500003211,45.06360500003211,45.06360500003211,45.06360500003211,45.06360500003211,45.20221770904027,45.20221770904027,45.20221770904027,45.20221770904027,,,,,,testh,2023-06-23_19h51.56.103,Pattern_1,2022.2.4,None,
slf11.xlsx,obs14.xlsx,test11.xlsx,,,,,,,,,,,,,,4,5,0,0,0,0,0,,,,,,,,,,,,,0,25,25,25,,,,,,,,,,,,,,,,,,,,,,,,,,,,,,,,,,,,,,,,,,,,,,,,,,,,,,,,,,,,,,,,,45.20221770904027,45.28610533400206,45.28610533400206,45.28610533400206,45.38295470899902,45.38295470899902,45.38295470899902,45.399430875026155,None,0,45.399430875026155,45.399430875026155,45.399430875026155,45.399430875026155,45.497221208992414,45.497221208992414,45.497221208992414,45.497221208992414,45.497221208992414,45.497221208992414,45.497221208992414,45.497221208992414,45.63476787501713,45.63476787501713,45.63476787501713,45.63476787501713,,,,,,testh,2023-06-23_19h51.56.103,Pattern_1,2022.2.4,None,
slf11.xlsx,obs14.xlsx,test11.xlsx,,,,,,,,,,,,,,4,2,1,0,0,0,0,,,,,,,,,,,,,0,26,26,26,,,,,,,,,,,,,,,,,,,,,,,,,,,,,,,,,,,,,,,,,,,,,,,,,,,,,,,,,,,,,,,,,45.63476787501713,45.718907208996825,45.718907208996825,45.718907208996825,45.81623783399118,45.81623783399118,45.81623783399118,45.832798167015426,None,0,45.832798167015426,45.832798167015426,45.832798167015426,45.832798167015426,45.92964887502603,45.92964887502603,45.92964887502603,45.92964887502603,45.92964887502603,45.92964887502603,45.92964887502603,45.92964887502603,46.0690132920281,46.0690132920281,46.0690132920281,46.0690132920281,,,,,,testh,2023-06-23_19h51.56.103,Pattern_1,2022.2.4,None,
slf11.xlsx,obs14.xlsx,test11.xlsx,,,,,,,,,,,,,,4,3,1,0,0,0,0,,,,,,,,,,,,,0,27,27,27,,,,,,,,,,,,,,,,,,,,,,,,,,,,,,,,,,,,,,,,,,,,,,,,,,,,,,,,,,,,,,,,,46.0690132920281,46.15243758400902,46.15243758400902,46.15243758400902,46.2496084170416,46.2496084170416,46.2496084170416,46.26609429199016,None,0,46.26609429199016,46.26609429199016,46.26609429199016,46.26609429199016,46.36286345904227,46.36286345904227,46.36286345904227,46.36286345904227,46.36286345904227,46.36286345904227,46.36286345904227,46.36286345904227,46.56838750001043,46.56838750001043,46.56838750001043,46.56838750001043,,,,,,testh,2023-06-23_19h51.56.103,Pattern_1,2022.2.4,None,
slf11.xlsx,obs14.xlsx,test11.xlsx,,,,,,,,,,,,,,4,2,2,0,0,0,0,,,,,,,,,,,,,0,28,28,28,,,,,,,,,,,,,,,,,,,,,,,,,,,,,,,,,,,,,,,,,,,,,,,,,,,,,,,,,,,,,,,,,46.56838750001043,46.65190200001234,46.65190200001234,46.65190200001234,46.749677292013075,46.749677292013075,46.749677292013075,46.76980499998899,None,0,46.76980499998899,46.76980499998899,46.76980499998899,46.76980499998899,46.88299754203763,46.88299754203763,46.88299754203763,46.88299754203763,46.88299754203763,46.88299754203763,46.88299754203763,46.88299754203763,47.01871979201678,47.01871979201678,47.01871979201678,47.01871979201678,,,,,,testh,2023-06-23_19h51.56.103,Pattern_1,2022.2.4,None,
slf11.xlsx,obs14.xlsx,test11.xlsx,,,,,,,,,,,,,,4,6,0,0,0,0,0,,,,,,,,,,,,,0,29,29,29,,,,,,,,,,,,,,,,,,,,,,,,,,,,,,,,,,,,,,,,,,,,,,,,,,,,,,,,,,,,,,,,,47.01871979201678,47.10206512501463,47.10206512501463,47.10206512501463,47.19957916700514,47.19957916700514,47.19957916700514,47.216194959008135,None,0,47.216194959008135,47.216194959008135,47.216194959008135,47.216194959008135,47.312243917025626,47.312243917025626,47.312243917025626,47.312243917025626,47.312243917025626,47.312243917025626,47.312243917025626,47.312243917025626,47.481452792009804,47.481452792009804,47.481452792009804,47.481452792009804,,,,,,testh,2023-06-23_19h51.56.103,Pattern_1,2022.2.4,None,
slf11.xlsx,obs14.xlsx,test11.xlsx,,,,,,,,,,,,,,,,,0,0,0,0,,,,,,,,,,,,,,,,,,,,,,,,,,,,,,,,,,,,,,,,,,,,,,,,,,,,,,,,,,,,,,,,,,,,,,,,,,,,,,,,,,,,,,,,,,,,,,,,,,,,,,,,,,,47.481452792009804,47.481452792009804,space,1.7209903330076486,,testh,2023-06-23_19h51.56.103,Pattern_1,2022.2.4,None,
slf12.xlsx,obs12.xlsx,test12.xlsx,0,2,1,40,50,,,,,,,,,,,,0,1,1,1,0,0,0,0,,,,,,,,,,,,,,,,,,,,,52.20839225000236,54.22159879200626,54.22159879200626,54.302030667022336,54.302030667022336,54.302030667022336,54.39957745902939,54.39957745902939,54.39957745902939,54.42899200000102,None,0,54.42899200000102,54.42899200000102,54.42899200000102,54.42899200000102,54.529493375041056,54.529493375041056,54.529493375041056,54.529493375041056,54.529493375041056,54.529493375041056,54.529493375041056,54.529493375041056,54.67040016700048,54.67040016700048,54.67040016700048,54.67040016700048,,,,,,,,,,,,,,,,,,,,,,,,,,,,,,,,,,,,,,,,,,,,,,,,,,,,,,,,,,,,testh,2023-06-23_19h51.56.103,Pattern_1,2022.2.4,None,
slf12.xlsx,obs12.xlsx,test12.xlsx,0,3,2,30,50,,,,,,,,,,,,0,1,1,1,0,1,1,1,,,,,,,,,,,,,,,,,,,,,,,54.67040016700048,54.75238329201238,54.75238329201238,54.75238329201238,54.84959458402591,54.84959458402591,54.84959458402591,54.87847012502607,None,0,54.87847012502607,54.87847012502607,54.87847012502607,54.87847012502607,54.979492917016614,54.979492917016614,54.979492917016614,54.979492917016614,54.979492917016614,54.979492917016614,54.979492917016614,54.979492917016614,55.12457462499151,55.12457462499151,55.12457462499151,55.12457462499151,,,,,,,,,,,,,,,,,,,,,,,,,,,,,,,,,,,,,,,,,,,,,,,,,,,,,,,,,,,,testh,2023-06-23_19h51.56.103,Pattern_1,2022.2.4,None,
slf12.xlsx,obs12.xlsx,test12.xlsx,0,1,2,40,30,,,,,,,,,,,,0,1,1,1,0,2,2,2,,,,,,,,,,,,,,,,,,,,,,,55.12457462499151,55.202019958989695,55.202019958989695,55.202019958989695,55.299604667001404,55.299604667001404,55.299604667001404,55.32925200002501,None,0,55.32925200002501,55.32925200002501,55.32925200002501,55.32925200002501,55.42944845900638,55.42944845900638,55.42944845900638,55.42944845900638,55.42944845900638,55.42944845900638,55.42944845900638,55.42944845900638,55.571613084001,55.571613084001,55.571613084001,55.571613084001,,,,,,,,,,,,,,,,,,,,,,,,,,,,,,,,,,,,,,,,,,,,,,,,,,,,,,,,,,,,testh,2023-06-23_19h51.56.103,Pattern_1,2022.2.4,None,
slf12.xlsx,obs12.xlsx,test12.xlsx,0,3,1,50,30,,,,,,,,,,,,0,1,1,1,0,3,3,3,,,,,,,,,,,,,,,,,,,,,,,55.571613084001,55.65206891699927,55.65206891699927,55.65206891699927,55.74958287499612,55.74958287499612,55.74958287499612,55.77849008399062,None,0,55.77849008399062,55.77849008399062,55.77849008399062,55.77849008399062,55.8788762090262,55.8788762090262,55.8788762090262,55.8788762090262,55.8788762090262,55.8788762090262,55.8788762090262,55.8788762090262,56.02445737499511,56.02445737499511,56.02445737499511,56.02445737499511,,,,,,,,,,,,,,,,,,,,,,,,,,,,,,,,,,,,,,,,,,,,,,,,,,,,,,,,,,,,testh,2023-06-23_19h51.56.103,Pattern_1,2022.2.4,None,
slf12.xlsx,obs12.xlsx,test12.xlsx,0,1,1,30,40,,,,,,,,,,,,0,1,1,1,0,4,4,4,,,,,,,,,,,,,,,,,,,,,,,56.02445737499511,56.10221958399052,56.10221958399052,56.10221958399052,56.19956729200203,56.19956729200203,56.19956729200203,56.229185083997436,None,0,56.229185083997436,56.229185083997436,56.229185083997436,56.229185083997436,56.329572708986234,56.329572708986234,56.329572708986234,56.329572708986234,56.329572708986234,56.329572708986234,56.329572708986234,56.329572708986234,56.47430858400185,56.47430858400185,56.47430858400185,56.47430858400185,,,,,,,,,,,,,,,,,,,,,,,,,,,,,,,,,,,,,,,,,,,,,,,,,,,,,,,,,,,,testh,2023-06-23_19h51.56.103,Pattern_1,2022.2.4,None,
slf12.xlsx,obs12.xlsx,test12.xlsx,0,2,2,50,40,,,,,,,,,,,,0,1,1,1,0,5,5,5,,,,,,,,,,,,,,,,,,,,,,,56.47430858400185,56.55210175004322,56.55210175004322,56.55210175004322,56.64957058400614,56.64957058400614,56.64957058400614,56.678521875001024,None,0,56.678521875001024,56.678521875001024,56.678521875001024,56.678521875001024,56.77889345900621,56.77889345900621,56.77889345900621,56.77889345900621,56.77889345900621,56.77889345900621,56.77889345900621,56.77889345900621,56.923455209005624,56.923455209005624,56.923455209005624,56.923455209005624,,,,,,,,,,,,,,,,,,,,,,,,,,,,,,,,,,,,,,,,,,,,,,,,,,,,,,,,,,,,testh,2023-06-23_19h51.56.103,Pattern_1,2022.2.4,None,
slf12.xlsx,obs12.xlsx,test12.xlsx,0,3,2,30,50,,,,,,,,,,,,0,1,1,1,0,6,6,6,,,,,,,,,,,,,,,,,,,,,,,56.923455209005624,57.00202050001826,57.00202050001826,57.00202050001826,57.09969750000164,57.09969750000164,57.09969750000164,57.12877650000155,None,0,57.12877650000155,57.12877650000155,57.12877650000155,57.12877650000155,57.22889025002951,57.22889025002951,57.22889025002951,57.22889025002951,57.22889025002951,57.22889025002951,57.22889025002951,57.22889025002951,57.37392695900053,57.37392695900053,57.37392695900053,57.37392695900053,,,,,,,,,,,,,,,,,,,,,,,,,,,,,,,,,,,,,,,,,,,,,,,,,,,,,,,,,,,,testh,2023-06-23_19h51.56.103,Pattern_1,2022.2.4,None,
slf12.xlsx,obs12.xlsx,test12.xlsx,0,2,1,40,50,,,,,,,,,,,,0,1,1,1,0,7,7,7,,,,,,,,,,,,,,,,,,,,,,,57.37392695900053,57.452220000035595,57.452220000035595,57.452220000035595,57.54961066698888,57.54961066698888,57.54961066698888,57.5785808750079,None,0,57.5785808750079,57.5785808750079,57.5785808750079,57.5785808750079,57.67902820900781,57.67902820900781,57.67902820900781,57.67902820900781,57.67902820900781,57.67902820900781,57.67902820900781,57.67902820900781,57.82472916704137,57.82472916704137,57.82472916704137,57.82472916704137,,,,,,,,,,,,,,,,,,,,,,,,,,,,,,,,,,,,,,,,,,,,,,,,,,,,,,,,,,,,testh,2023-06-23_19h51.56.103,Pattern_1,2022.2.4,None,
slf12.xlsx,obs12.xlsx,test12.xlsx,0,1,2,40,30,,,,,,,,,,,,0,1,1,1,0,8,8,8,,,,,,,,,,,,,,,,,,,,,,,57.82472916704137,57.90275616699364,57.90275616699364,57.90275616699364,57.99959399999352,57.99959399999352,57.99959399999352,58.02920437499415,None,0,58.02920437499415,58.02920437499415,58.02920437499415,58.02920437499415,58.129688500019256,58.129688500019256,58.129688500019256,58.129688500019256,58.129688500019256,58.129688500019256,58.129688500019256,58.129688500019256,58.2746863749926,58.2746863749926,58.2746863749926,58.2746863749926,,,,,,,,,,,,,,,,,,,,,,,,,,,,,,,,,,,,,,,,,,,,,,,,,,,,,,,,,,,,testh,2023-06-23_19h51.56.103,Pattern_1,2022.2.4,None,
slf12.xlsx,obs12.xlsx,test12.xlsx,None,None,None,None,None,,,,,,,,,,,,0,1,1,1,0,9,9,9,,,,,,,,,,,,,,,,,,,,,,,58.2746863749926,58.35195470904,58.35195470904,58.35195470904,58.449584584042896,58.449584584042896,58.449584584042896,58.47925912501523,None,0,58.47925912501523,58.47925912501523,58.47925912501523,58.47925912501523,58.579311584006064,58.579311584006064,58.579311584006064,58.579311584006064,58.579311584006064,58.579311584006064,58.579311584006064,58.579311584006064,58.726283417025115,58.726283417025115,58.726283417025115,58.726283417025115,,,,,,,,,,,,,,,,,,,,,,,,,,,,,,,,,,,,,,,,,,,,,,,,,,,,,,,,,,,,testh,2023-06-23_19h51.56.103,Pattern_1,2022.2.4,None,
slf12.xlsx,obs12.xlsx,test12.xlsx,None,None,None,None,None,,,,,,,,,,,,0,1,1,1,0,10,10,10,,,,,,,,,,,,,,,,,,,,,,,58.726283417025115,58.802428625000175,58.802428625000175,58.802428625000175,58.89956833398901,58.89956833398901,58.89956833398901,58.92903879203368,None,0,58.92903879203368,58.92903879203368,58.92903879203368,58.92903879203368,59.029278166999575,59.029278166999575,59.029278166999575,59.029278166999575,59.029278166999575,59.029278166999575,59.029278166999575,59.029278166999575,59.17820004199166,59.17820004199166,59.17820004199166,59.17820004199166,,,,,,,,,,,,,,,,,,,,,,,,,,,,,,,,,,,,,,,,,,,,,,,,,,,,,,,,,,,,testh,2023-06-23_19h51.56.103,Pattern_1,2022.2.4,None,
slf12.xlsx,obs12.xlsx,test12.xlsx,None,None,None,None,None,,,,,,,,,,,,0,1,1,1,0,11,11,11,,,,,,,,,,,,,,,,,,,,,,,59.17820004199166,59.25210891698953,59.25210891698953,59.25210891698953,59.34959283401258,59.34959283401258,59.34959283401258,59.3793079170282,None,0,59.3793079170282,59.3793079170282,59.3793079170282,59.3793079170282,59.47950670903083,59.47950670903083,59.47950670903083,59.47950670903083,59.47950670903083,59.47950670903083,59.47950670903083,59.47950670903083,59.6502012500423,59.6502012500423,59.6502012500423,59.6502012500423,,,,,,,,,,,,,,,,,,,,,,,,,,,,,,,,,,,,,,,,,,,,,,,,,,,,,,,,,,,,testh,2023-06-23_19h51.56.103,Pattern_1,2022.2.4,None,
slf12.xlsx,obs12.xlsx,test12.xlsx,,,,,,0,1,1,left,low,0,0.5,0.5,,,,0,1,1,1,,,,,,,,,0,0,0,0,,,,,,,,,,,,,,,,,,,,,,,,,,,,,,,,,,,,,,,,,59.6502012500423,61.642055750009604,61.702212875010446,61.702212875010446,62.20258754200768,62.299562542000785,62.299562542000785,62.299562542000785,62.33584933402017,62.33584933402017,62.33584933402017,62.33584933402017,62.33584933402017,62.41919650003547,62.516477291996125,62.93280062498525,62.93280062498525,62.93280062498525,62.93280062498525,62.93280062498525,62.93280062498525,62.93280062498525,62.93280062498525,63.08018733403878,63.08018733403878,63.08018733403878,63.08018733403878,,,,,,,,,,,,,,,,,,,,,,,,,,,,,,,,,testh,2023-06-23_19h51.56.103,Pattern_1,2022.2.4,None,
slf12.xlsx,obs12.xlsx,test12.xlsx,,,,,,0,2,2,right,high,0,0.5,0.5,,,,0,1,1,1,,,,,,,,,0,1,1,1,,,,,,,,,,,,,,,,,,,,,,,,,,,,,,,,,,,,,,,,,,63.08018733403878,63.15221895900322,63.15221895900322,63.65203450003173,63.749545541999396,63.749545541999396,63.749545541999396,63.7691193339997,63.7691193339997,63.7691193339997,63.7691193339997,63.7691193339997,63.852358750009444,63.94955983402906,64.36619716702262,64.36619716702262,64.36619716702262,64.36619716702262,64.36619716702262,64.36619716702262,64.36619716702262,64.36619716702262,64.51036016701255,64.51036016701255,64.51036016701255,64.51036016701255,,,,,,,,,,,,,,,,,,,,,,,,,,,,,,,,,testh,2023-06-23_19h51.56.103,Pattern_1,2022.2.4,None,
slf12.xlsx,obs12.xlsx,test12.xlsx,,,,,,0,3,1,left,low,0,0.5,0.5,,,,0,1,1,1,,,,,,,,,0,2,2,2,,,,,,,,,,,,,,,,,,,,,,,,,,,,,,,,,,,,,,,,,,64.51036016701255,64.58535087498603,64.58535087498603,65.08565254200948,65.18291787500493,65.18291787500493,65.18291787500493,65.20268354204018,65.20268354204018,65.20268354204018,65.20268354204018,65.20268354204018,65.28705387504306,65.38314179203007,65.79946391703561,65.79946391703561,65.79946391703561,65.79946391703561,65.79946391703561,65.79946391703561,65.79946391703561,65.79946391703561,66.01325483398978,66.01325483398978,66.01325483398978,66.01325483398978,,,,,,,,,,,,,,,,,,,,,,,,,,,,,,,,,testh,2023-06-23_19h51.56.103,Pattern_1,2022.2.4,None,
slf12.xlsx,obs12.xlsx,test12.xlsx,,,,,,0,2,1,right,high,0,0.5,0.5,,,,0,1,1,1,,,,,,,,,0,3,3,3,,,,,,,,,,,,,,,,,,,,,,,,,,,,,,,,,,,,,,,,,,66.01325483398978,66.08565958403051,66.08565958403051,66.58572429203195,66.68299679202028,66.68299679202028,66.68299679202028,66.70287429203745,66.70287429203745,66.70287429203745,66.70287429203745,66.70287429203745,66.78638950001914,67.30765829200391,67.30765829200391,67.30765829200391,67.30765829200391,67.30765829200391,67.30765829200391,67.30765829200391,67.30765829200391,67.30765829200391,67.46314858400729,67.46314858400729,67.46314858400729,67.46314858400729,,,,,,,,,,,,,,,,,,,,,,,,,,,,,,,,,testh,2023-06-23_19h51.56.103,Pattern_1,2022.2.4,None,
slf12.xlsx,obs12.xlsx,test12.xlsx,,,,,,0,1,2,left,low,0,0.5,0.5,,,,0,1,1,1,,,,,,,,,0,4,4,4,,,,,,,,,,,,,,,,,,,,,,,,,,,,,,,,,,,,,,,,,,67.46314858400729,67.54959599999711,67.54959599999711,68.0495660000015,68.13579362502787,68.13579362502787,68.13579362502787,68.1524597920361,68.1524597920361,68.1524597920361,68.1524597920361,68.1524597920361,68.23571770900162,68.33279508398846,68.74943095899653,68.74943095899653,68.74943095899653,68.74943095899653,68.74943095899653,68.74943095899653,68.74943095899653,68.74943095899653,68.89635908399941,68.89635908399941,68.89635908399941,68.89635908399941,,,,,,,,,,,,,,,,,,,,,,,,,,,,,,,,,testh,2023-06-23_19h51.56.103,Pattern_1,2022.2.4,None,
slf12.xlsx,obs12.xlsx,test12.xlsx,,,,,,0,3,2,right,high,0,0.5,0.5,,,,0,1,1,1,,,,,,,,,0,5,5,5,,,,,,,,,,,,,,,,,,,,,,,,,,,,,,,,,,,,,,,,,,68.89635908399941,68.98290766699938,68.98290766699938,69.48287812503986,69.56854554201709,69.56854554201709,69.56854554201709,69.58582612499595,69.58582612499595,69.58582612499595,69.58582612499595,69.58582612499595,69.66937945899554,69.7661877089995,70.18279387499206,70.18279387499206,70.18279387499206,70.18279387499206,70.18279387499206,70.18279387499206,70.18279387499206,70.18279387499206,70.33027041703463,70.33027041703463,70.33027041703463,70.33027041703463,,,,,,,,,,,,,,,,,,,,,,,,,,,,,,,,,testh,2023-06-23_19h51.56.103,Pattern_1,2022.2.4,None,
slf12.xlsx,obs12.xlsx,test12.xlsx,,,,,,0,1,1,left,low,0,0.5,0.5,,,,0,1,1,1,,,,,,,,,0,6,6,6,,,,,,,,,,,,,,,,,,,,,,,,,,,,,,,,,,,,,,,,,,70.33027041703463,70.41623283398803,70.41623283398803,70.91658933402505,71.00254408403998,71.00254408403998,71.00254408403998,71.01952241698746,71.01952241698746,71.01952241698746,71.01952241698746,71.01952241698746,71.10243829200044,71.1995747089968,71.61603041703347,71.61603041703347,71.61603041703347,71.61603041703347,71.61603041703347,71.61603041703347,71.61603041703347,71.61603041703347,71.76375566702336,71.76375566702336,71.76375566702336,71.76375566702336,,,,,,,,,,,,,,,,,,,,,,,,,,,,,,,,,testh,2023-06-23_19h51.56.103,Pattern_1,2022.2.4,None,
slf12.xlsx,obs12.xlsx,test12.xlsx,,,,,,0,3,1,right,high,0,0.5,0.5,,,,0,1,1,1,,,,,,,,,0,7,7,7,,,,,,,,,,,,,,,,,,,,,,,,,,,,,,,,,,,,,,,,,,71.76375566702336,71.8496480419999,71.8496480419999,72.34950100001879,72.43543929199222,72.43543929199222,72.43543929199222,72.4537470000214,72.4537470000214,72.4537470000214,72.4537470000214,72.4537470000214,72.54950883402489,72.63526070903754,73.06135525001446,73.06135525001446,73.06135525001446,73.06135525001446,73.06135525001446,73.06135525001446,73.06135525001446,73.06135525001446,73.2159736250178,73.2159736250178,73.2159736250178,73.2159736250178,,,,,,,,,,,,,,,,,,,,,,,,,,,,,,,,,testh,2023-06-23_19h51.56.103,Pattern_1,2022.2.4,None,
slf12.xlsx,obs12.xlsx,test12.xlsx,,,,,,0,2,2,left,low,0,0.5,0.5,,,,0,1,1,1,,,,,,,,,0,8,8,8,,,,,,,,,,,,,,,,,,,,,,,,,,,,,,,,,,,,,,,,,,73.2159736250178,73.29962916701334,73.29962916701334,73.79956687503727,73.88545716699446,73.88545716699446,73.88545716699446,73.90248691703891,73.90248691703891,73.90248691703891,73.90248691703891,73.90248691703891,73.985562167014,74.08289441699162,74.49933187500574,74.49933187500574,74.49933187500574,74.49933187500574,74.49933187500574,74.49933187500574,74.49933187500574,74.49933187500574,74.67138979199808,74.67138979199808,74.67138979199808,74.67138979199808,,,,,,,,,,,,,,,,,,,,,,,,,,,,,,,,,testh,2023-06-23_19h51.56.103,Pattern_1,2022.2.4,None,
slf12.xlsx,obs12.xlsx,test12.xlsx,,,,,,,,,,,,,,1,1,1,0,1,1,1,,,,,,,,,,,,,0,0,0,0,,,,,,,,,,,,,,,,,,,,,,,,,,,,,,,,,,,,,,,,,,,,,,,,,,,,,,,,,,,,,,,,74.67138979199808,76.67511504201684,76.7357498750207,76.7357498750207,76.7357498750207,76.83292312500998,76.83292312500998,76.83292312500998,76.88008370902389,None,0,76.88008370902389,76.88008370902389,76.88008370902389,76.88008370902389,76.98015454201959,76.98015454201959,76.98015454201959,76.98015454201959,76.98015454201959,76.98015454201959,76.98015454201959,76.98015454201959,77.13505745900329,77.13505745900329,77.13505745900329,77.13505745900329,,,,,,testh,2023-06-23_19h51.56.103,Pattern_1,2022.2.4,None,
slf12.xlsx,obs12.xlsx,test12.xlsx,,,,,,,,,,,,,,1,1,2,0,1,1,1,,,,,,,,,,,,,0,1,1,1,,,,,,,,,,,,,,,,,,,,,,,,,,,,,,,,,,,,,,,,,,,,,,,,,,,,,,,,,,,,,,,,,77.13505745900329,77.2193207090022,77.2193207090022,77.2193207090022,77.31634004198713,77.31634004198713,77.31634004198713,77.3327355000074,None,0,77.3327355000074,77.3327355000074,77.3327355000074,77.3327355000074,77.43043524998939,77.43043524998939,77.43043524998939,77.43043524998939,77.43043524998939,77.43043524998939,77.43043524998939,77.43043524998939,77.58821462502237,77.58821462502237,77.58821462502237,77.58821462502237,,,,,,testh,2023-06-23_19h51.56.103,Pattern_1,2022.2.4,None,
slf12.xlsx,obs12.xlsx,test12.xlsx,,,,,,,,,,,,,,1,2,1,0,1,1,1,,,,,,,,,,,,,0,2,2,2,,,,,,,,,,,,,,,,,,,,,,,,,,,,,,,,,,,,,,,,,,,,,,,,,,,,,,,,,,,,,,,,,77.58821462502237,77.66904983401764,77.66904983401764,77.66904983401764,77.76638620899757,77.76638620899757,77.76638620899757,77.79677395900944,None,0,77.79677395900944,77.79677395900944,77.79677395900944,77.79677395900944,77.89583229203708,77.89583229203708,77.89583229203708,77.89583229203708,77.89583229203708,77.89583229203708,77.89583229203708,77.89583229203708,78.06824945902918,78.06824945902918,78.06824945902918,78.06824945902918,,,,,,testh,2023-06-23_19h51.56.103,Pattern_1,2022.2.4,None,
slf12.xlsx,obs12.xlsx,test12.xlsx,,,,,,,,,,,,,,1,2,2,0,1,1,1,,,,,,,,,,,,,0,3,3,3,,,,,,,,,,,,,,,,,,,,,,,,,,,,,,,,,,,,,,,,,,,,,,,,,,,,,,,,,,,,,,,,,78.06824945902918,78.15235362498788,78.15235362498788,78.15235362498788,78.24958095903276,78.24958095903276,78.24958095903276,78.26610016700579,None,0,78.26610016700579,78.26610016700579,78.26610016700579,78.26610016700579,78.36222104198532,78.36222104198532,78.36222104198532,78.36222104198532,78.36222104198532,78.36222104198532,78.36222104198532,78.36222104198532,78.51922091702,78.51922091702,78.51922091702,78.51922091702,,,,,,testh,2023-06-23_19h51.56.103,Pattern_1,2022.2.4,None,
slf12.xlsx,obs12.xlsx,test12.xlsx,,,,,,,,,,,,,,1,3,1,0,1,1,1,,,,,,,,,,,,,0,4,4,4,,,,,,,,,,,,,,,,,,,,,,,,,,,,,,,,,,,,,,,,,,,,,,,,,,,,,,,,,,,,,,,,,78.51922091702,78.60232179198647,78.60232179198647,78.60232179198647,78.69973187503638,78.69973187503638,78.69973187503638,78.71605408401228,None,0,78.71605408401228,78.71605408401228,78.71605408401228,78.71605408401228,78.81190912501188,78.81190912501188,78.81190912501188,78.81190912501188,78.81190912501188,78.81190912501188,78.81190912501188,78.81190912501188,78.96843379200436,78.96843379200436,78.96843379200436,78.96843379200436,,,,,,testh,2023-06-23_19h51.56.103,Pattern_1,2022.2.4,None,
slf12.xlsx,obs12.xlsx,test12.xlsx,,,,,,,,,,,,,,1,3,2,0,1,1,1,,,,,,,,,,,,,0,5,5,5,,,,,,,,,,,,,,,,,,,,,,,,,,,,,,,,,,,,,,,,,,,,,,,,,,,,,,,,,,,,,,,,,78.96843379200436,79.053530959005,79.053530959005,79.053530959005,79.1496565840207,79.1496565840207,79.1496565840207,79.16603308403865,None,0,79.16603308403865,79.16603308403865,79.16603308403865,79.16603308403865,79.26207550003892,79.26207550003892,79.26207550003892,79.26207550003892,79.26207550003892,79.26207550003892,79.26207550003892,79.26207550003892,79.48668316699332,79.48668316699332,79.48668316699332,79.48668316699332,,,,,,testh,2023-06-23_19h51.56.103,Pattern_1,2022.2.4,None,
slf12.xlsx,obs12.xlsx,test12.xlsx,,,,,,,,,,,,,,2,1,1,0,1,1,1,,,,,,,,,,,,,0,6,6,6,,,,,,,,,,,,,,,,,,,,,,,,,,,,,,,,,,,,,,,,,,,,,,,,,,,,,,,,,,,,,,,,,79.48668316699332,79.5688517090166,79.5688517090166,79.5688517090166,79.66616629203781,79.66616629203781,79.66616629203781,79.69591345899971,None,0,79.69591345899971,79.69591345899971,79.69591345899971,79.69591345899971,79.79585104202852,79.79585104202852,79.79585104202852,79.79585104202852,79.79585104202852,79.79585104202852,79.79585104202852,79.79585104202852,79.95218883402413,79.95218883402413,79.95218883402413,79.95218883402413,,,,,,testh,2023-06-23_19h51.56.103,Pattern_1,2022.2.4,None,
slf12.xlsx,obs12.xlsx,test12.xlsx,,,,,,,,,,,,,,2,1,2,0,1,1,1,,,,,,,,,,,,,0,7,7,7,,,,,,,,,,,,,,,,,,,,,,,,,,,,,,,,,,,,,,,,,,,,,,,,,,,,,,,,,,,,,,,,,79.95218883402413,80.03558225004235,80.03558225004235,80.03558225004235,80.13290220900672,80.13290220900672,80.13290220900672,80.14945654198527,None,0,80.14945654198527,80.14945654198527,80.14945654198527,80.14945654198527,80.2460325420252,80.2460325420252,80.2460325420252,80.2460325420252,80.2460325420252,80.2460325420252,80.2460325420252,80.2460325420252,80.40412604203448,80.40412604203448,80.40412604203448,80.40412604203448,,,,,,testh,2023-06-23_19h51.56.103,Pattern_1,2022.2.4,None,
slf12.xlsx,obs12.xlsx,test12.xlsx,,,,,,,,,,,,,,2,2,1,0,1,1,1,,,,,,,,,,,,,0,8,8,8,,,,,,,,,,,,,,,,,,,,,,,,,,,,,,,,,,,,,,,,,,,,,,,,,,,,,,,,,,,,,,,,,80.40412604203448,80.48585825000191,80.48585825000191,80.48585825000191,80.58286879200023,80.58286879200023,80.58286879200023,80.6134517500177,None,0,80.6134517500177,80.6134517500177,80.6134517500177,80.6134517500177,80.71513783402042,80.71513783402042,80.71513783402042,80.71513783402042,80.71513783402042,80.71513783402042,80.71513783402042,80.71513783402042,80.87354041700019,80.87354041700019,80.87354041700019,80.87354041700019,,,,,,testh,2023-06-23_19h51.56.103,Pattern_1,2022.2.4,None,
slf12.xlsx,obs12.xlsx,test12.xlsx,,,,,,,,,,,,,,2,2,2,0,1,1,1,,,,,,,,,,,,,0,9,9,9,,,,,,,,,,,,,,,,,,,,,,,,,,,,,,,,,,,,,,,,,,,,,,,,,,,,,,,,,,,,,,,,,80.87354041700019,80.95243470900459,80.95243470900459,80.95243470900459,81.04952375002904,81.04952375002904,81.04952375002904,81.0803081250051,None,0,81.0803081250051,81.0803081250051,81.0803081250051,81.0803081250051,81.18039420899004,81.18039420899004,81.18039420899004,81.18039420899004,81.18039420899004,81.18039420899004,81.18039420899004,81.18039420899004,81.33763679204276,81.33763679204276,81.33763679204276,81.33763679204276,,,,,,testh,2023-06-23_19h51.56.103,Pattern_1,2022.2.4,None,
slf12.xlsx,obs12.xlsx,test12.xlsx,,,,,,,,,,,,,,2,3,1,0,1,1,1,,,,,,,,,,,,,0,10,10,10,,,,,,,,,,,,,,,,,,,,,,,,,,,,,,,,,,,,,,,,,,,,,,,,,,,,,,,,,,,,,,,,,81.33763679204276,81.41900462500053,81.41900462500053,81.41900462500053,81.51620229199762,81.51620229199762,81.51620229199762,81.54498120903736,None,0,81.54498120903736,81.54498120903736,81.54498120903736,81.54498120903736,81.64511633402435,81.64511633402435,81.64511633402435,81.64511633402435,81.64511633402435,81.64511633402435,81.64511633402435,81.64511633402435,81.80544358398765,81.80544358398765,81.80544358398765,81.80544358398765,,,,,,testh,2023-06-23_19h51.56.103,Pattern_1,2022.2.4,None,
slf12.xlsx,obs12.xlsx,test12.xlsx,,,,,,,,,,,,,,2,3,2,0,1,1,1,,,,,,,,,,,,,0,11,11,11,,,,,,,,,,,,,,,,,,,,,,,,,,,,,,,,,,,,,,,,,,,,,,,,,,,,,,,,,,,,,,,,,81.80544358398765,81.88561925000977,81.88561925000977,81.88561925000977,81.98284895898541,81.98284895898541,81.98284895898541,82.01176770898746,None,0,82.01176770898746,82.01176770898746,82.01176770898746,82.01176770898746,82.11227041704115,82.11227041704115,82.11227041704115,82.11227041704115,82.11227041704115,82.11227041704115,82.11227041704115,82.11227041704115,82.27155454200692,82.27155454200692,82.27155454200692,82.27155454200692,,,,,,testh,2023-06-23_19h51.56.103,Pattern_1,2022.2.4,None,
slf12.xlsx,obs12.xlsx,test12.xlsx,,,,,,,,,,,,,,3,4,0,0,1,1,1,,,,,,,,,,,,,0,12,12,12,,,,,,,,,,,,,,,,,,,,,,,,,,,,,,,,,,,,,,,,,,,,,,,,,,,,,,,,,,,,,,,,,82.27155454200692,82.35243162501138,82.35243162501138,82.35243162501138,82.44956012500916,82.44956012500916,82.44956012500916,82.47839570901124,None,0,82.47839570901124,82.47839570901124,82.47839570901124,82.47839570901124,82.57935641700169,82.57935641700169,82.57935641700169,82.57935641700169,82.57935641700169,82.57935641700169,82.57935641700169,82.57935641700169,82.74025725002866,82.74025725002866,82.74025725002866,82.74025725002866,,,,,,testh,2023-06-23_19h51.56.103,Pattern_1,2022.2.4,None,
slf12.xlsx,obs12.xlsx,test12.xlsx,,,,,,,,,,,,,,3,1,1,0,1,1,1,,,,,,,,,,,,,0,13,13,13,,,,,,,,,,,,,,,,,,,,,,,,,,,,,,,,,,,,,,,,,,,,,,,,,,,,,,,,,,,,,,,,,82.74025725002866,82.81910925003467,82.81910925003467,82.81910925003467,82.91632641700562,82.91632641700562,82.91632641700562,82.94745825004065,None,0,82.94745825004065,82.94745825004065,82.94745825004065,82.94745825004065,83.04727562499465,83.04727562499465,83.04727562499465,83.04727562499465,83.04727562499465,83.04727562499465,83.04727562499465,83.04727562499465,83.20704779203515,83.20704779203515,83.20704779203515,83.20704779203515,,,,,,testh,2023-06-23_19h51.56.103,Pattern_1,2022.2.4,None,
slf12.xlsx,obs12.xlsx,test12.xlsx,,,,,,,,,,,,,,3,3,2,0,1,1,1,,,,,,,,,,,,,0,14,14,14,,,,,,,,,,,,,,,,,,,,,,,,,,,,,,,,,,,,,,,,,,,,,,,,,,,,,,,,,,,,,,,,,83.20704779203515,83.28572995902505,83.28572995902505,83.28572995902505,83.38287575001596,83.38287575001596,83.38287575001596,83.41256841702852,None,0,83.41256841702852,83.41256841702852,83.41256841702852,83.41256841702852,83.51312058401527,83.51312058401527,83.51312058401527,83.51312058401527,83.51312058401527,83.51312058401527,83.51312058401527,83.51312058401527,83.67460912500974,83.67460912500974,83.67460912500974,83.67460912500974,,,,,,testh,2023-06-23_19h51.56.103,Pattern_1,2022.2.4,None,
slf12.xlsx,obs12.xlsx,test12.xlsx,,,,,,,,,,,,,,3,1,2,0,1,1,1,,,,,,,,,,,,,0,15,15,15,,,,,,,,,,,,,,,,,,,,,,,,,,,,,,,,,,,,,,,,,,,,,,,,,,,,,,,,,,,,,,,,,83.67460912500974,83.75217029202031,83.75217029202031,83.75217029202031,83.84950499999104,83.84950499999104,83.84950499999104,83.87814458401408,None,0,83.87814458401408,83.87814458401408,83.87814458401408,83.87814458401408,83.99184391699964,83.99184391699964,83.99184391699964,83.99184391699964,83.99184391699964,83.99184391699964,83.99184391699964,83.99184391699964,84.16020029201172,84.16020029201172,84.16020029201172,84.16020029201172,,,,,,testh,2023-06-23_19h51.56.103,Pattern_1,2022.2.4,None,
slf12.xlsx,obs12.xlsx,test12.xlsx,,,,,,,,,,,,,,3,5,0,0,1,1,1,,,,,,,,,,,,,0,16,16,16,,,,,,,,,,,,,,,,,,,,,,,,,,,,,,,,,,,,,,,,,,,,,,,,,,,,,,,,,,,,,,,,,84.16020029201172,84.23565820901422,84.23565820901422,84.23565820901422,84.3328665420413,84.3328665420413,84.3328665420413,84.36350733402651,None,0,84.36350733402651,84.36350733402651,84.36350733402651,84.36350733402651,84.46381074999226,84.46381074999226,84.46381074999226,84.46381074999226,84.46381074999226,84.46381074999226,84.46381074999226,84.46381074999226,84.62685120903188,84.62685120903188,84.62685120903188,84.62685120903188,,,,,,testh,2023-06-23_19h51.56.103,Pattern_1,2022.2.4,None,
slf12.xlsx,obs12.xlsx,test12.xlsx,,,,,,,,,,,,,,3,2,1,0,1,1,1,,,,,,,,,,,,,0,17,17,17,,,,,,,,,,,,,,,,,,,,,,,,,,,,,,,,,,,,,,,,,,,,,,,,,,,,,,,,,,,,,,,,,84.62685120903188,84.70259208400967,84.70259208400967,84.70259208400967,84.79953745903913,84.79953745903913,84.79953745903913,84.8293351670145,None,0,84.8293351670145,84.8293351670145,84.8293351670145,84.8293351670145,84.92967320902972,84.92967320902972,84.92967320902972,84.92967320902972,84.92967320902972,84.92967320902972,84.92967320902972,84.92967320902972,85.17815816699294,85.17815816699294,85.17815816699294,85.17815816699294,,,,,,testh,2023-06-23_19h51.56.103,Pattern_1,2022.2.4,None,
slf12.xlsx,obs12.xlsx,test12.xlsx,,,,,,,,,,,,,,3,3,1,0,1,1,1,,,,,,,,,,,,,0,18,18,18,,,,,,,,,,,,,,,,,,,,,,,,,,,,,,,,,,,,,,,,,,,,,,,,,,,,,,,,,,,,,,,,,85.17815816699294,85.25229704199592,85.25229704199592,85.25229704199592,85.34952487499686,85.34952487499686,85.34952487499686,85.37884045898682,None,0,85.37884045898682,85.37884045898682,85.37884045898682,85.37884045898682,85.48084754199954,85.48084754199954,85.48084754199954,85.48084754199954,85.48084754199954,85.48084754199954,85.48084754199954,85.48084754199954,85.66452583402861,85.66452583402861,85.66452583402861,85.66452583402861,,,,,,testh,2023-06-23_19h51.56.103,Pattern_1,2022.2.4,None,
slf12.xlsx,obs12.xlsx,test12.xlsx,,,,,,,,,,,,,,3,2,2,0,1,1,1,,,,,,,,,,,,,0,19,19,19,,,,,,,,,,,,,,,,,,,,,,,,,,,,,,,,,,,,,,,,,,,,,,,,,,,,,,,,,,,,,,,,,85.66452583402861,85.73588829202345,85.73588829202345,85.73588829202345,85.83285216701915,85.83285216701915,85.83285216701915,85.86413954204181,None,0,85.86413954204181,85.86413954204181,85.86413954204181,85.86413954204181,85.96314579201862,85.96314579201862,85.96314579201862,85.96314579201862,85.96314579201862,85.96314579201862,85.96314579201862,85.96314579201862,86.12613883399172,86.12613883399172,86.12613883399172,86.12613883399172,,,,,,testh,2023-06-23_19h51.56.103,Pattern_1,2022.2.4,None,
slf12.xlsx,obs12.xlsx,test12.xlsx,,,,,,,,,,,,,,3,6,0,0,1,1,1,,,,,,,,,,,,,0,20,20,20,,,,,,,,,,,,,,,,,,,,,,,,,,,,,,,,,,,,,,,,,,,,,,,,,,,,,,,,,,,,,,,,,86.12613883399172,86.2024202090106,86.2024202090106,86.2024202090106,86.29948158399202,86.29948158399202,86.29948158399202,86.32916062499862,None,0,86.32916062499862,86.32916062499862,86.32916062499862,86.32916062499862,86.42885229201056,86.42885229201056,86.42885229201056,86.42885229201056,86.42885229201056,86.42885229201056,86.42885229201056,86.42885229201056,86.59314766700845,86.59314766700845,86.59314766700845,86.59314766700845,,,,,,testh,2023-06-23_19h51.56.103,Pattern_1,2022.2.4,None,
slf12.xlsx,obs12.xlsx,test12.xlsx,,,,,,,,,,,,,,4,4,0,0,1,1,1,,,,,,,,,,,,,0,21,21,21,,,,,,,,,,,,,,,,,,,,,,,,,,,,,,,,,,,,,,,,,,,,,,,,,,,,,,,,,,,,,,,,,86.59314766700845,86.66887162503554,86.66887162503554,86.66887162503554,86.7661717919982,86.7661717919982,86.7661717919982,86.7955810840358,None,0,86.7955810840358,86.7955810840358,86.7955810840358,86.7955810840358,86.89502100000391,86.89502100000391,86.89502100000391,86.89502100000391,86.89502100000391,86.89502100000391,86.89502100000391,86.89502100000391,87.06015245901654,87.06015245901654,87.06015245901654,87.06015245901654,,,,,,testh,2023-06-23_19h51.56.103,Pattern_1,2022.2.4,None,
slf12.xlsx,obs12.xlsx,test12.xlsx,,,,,,,,,,,,,,4,1,1,0,1,1,1,,,,,,,,,,,,,0,22,22,22,,,,,,,,,,,,,,,,,,,,,,,,,,,,,,,,,,,,,,,,,,,,,,,,,,,,,,,,,,,,,,,,,87.06015245901654,87.13583225000184,87.13583225000184,87.13583225000184,87.23282720899442,87.23282720899442,87.23282720899442,87.26127212500433,None,0,87.26127212500433,87.26127212500433,87.26127212500433,87.26127212500433,87.36176083399914,87.36176083399914,87.36176083399914,87.36176083399914,87.36176083399914,87.36176083399914,87.36176083399914,87.36176083399914,87.5264762500301,87.5264762500301,87.5264762500301,87.5264762500301,,,,,,testh,2023-06-23_19h51.56.103,Pattern_1,2022.2.4,None,
slf12.xlsx,obs12.xlsx,test12.xlsx,,,,,,,,,,,,,,4,3,2,0,1,1,1,,,,,,,,,,,,,0,23,23,23,,,,,,,,,,,,,,,,,,,,,,,,,,,,,,,,,,,,,,,,,,,,,,,,,,,,,,,,,,,,,,,,,87.5264762500301,87.60215370904189,87.60215370904189,87.60215370904189,87.69948679202935,87.69948679202935,87.69948679202935,87.72744466701988,None,0,87.72744466701988,87.72744466701988,87.72744466701988,87.72744466701988,87.82838804199127,87.82838804199127,87.82838804199127,87.82838804199127,87.82838804199127,87.82838804199127,87.82838804199127,87.82838804199127,87.99682162504178,87.99682162504178,87.99682162504178,87.99682162504178,,,,,,testh,2023-06-23_19h51.56.103,Pattern_1,2022.2.4,None,
slf12.xlsx,obs12.xlsx,test12.xlsx,,,,,,,,,,,,,,4,1,2,0,1,1,1,,,,,,,,,,,,,0,24,24,24,,,,,,,,,,,,,,,,,,,,,,,,,,,,,,,,,,,,,,,,,,,,,,,,,,,,,,,,,,,,,,,,,87.99682162504178,88.08285620901734,88.08285620901734,88.08285620901734,88.16897599998629,88.16897599998629,88.16897599998629,88.19660320901312,None,0,88.19660320901312,88.19660320901312,88.19660320901312,88.19660320901312,88.29674579203129,88.29674579203129,88.29674579203129,88.29674579203129,88.29674579203129,88.29674579203129,88.29674579203129,88.29674579203129,88.46465083403746,88.46465083403746,88.46465083403746,88.46465083403746,,,,,,testh,2023-06-23_19h51.56.103,Pattern_1,2022.2.4,None,
slf12.xlsx,obs12.xlsx,test12.xlsx,,,,,,,,,,,,,,4,5,0,0,1,1,1,,,,,,,,,,,,,0,25,25,25,,,,,,,,,,,,,,,,,,,,,,,,,,,,,,,,,,,,,,,,,,,,,,,,,,,,,,,,,,,,,,,,,88.46465083403746,88.54950612504035,88.54950612504035,88.54950612504035,88.63565225002822,88.63565225002822,88.63565225002822,88.6634878750192,None,0,88.6634878750192,88.6634878750192,88.6634878750192,88.6634878750192,88.76353337499313,88.76353337499313,88.76353337499313,88.76353337499313,88.76353337499313,88.76353337499313,88.76353337499313,88.76353337499313,88.93105158401886,88.93105158401886,88.93105158401886,88.93105158401886,,,,,,testh,2023-06-23_19h51.56.103,Pattern_1,2022.2.4,None,
slf12.xlsx,obs12.xlsx,test12.xlsx,,,,,,,,,,,,,,4,2,1,0,1,1,1,,,,,,,,,,,,,0,26,26,26,,,,,,,,,,,,,,,,,,,,,,,,,,,,,,,,,,,,,,,,,,,,,,,,,,,,,,,,,,,,,,,,,88.93105158401886,89.01618550001876,89.01618550001876,89.01618550001876,89.10236600000644,89.10236600000644,89.10236600000644,89.12929779203841,None,0,89.12929779203841,89.12929779203841,89.12929779203841,89.12929779203841,89.22959825000726,89.22959825000726,89.22959825000726,89.22959825000726,89.22959825000726,89.22959825000726,89.22959825000726,89.22959825000726,89.39791400003014,89.39791400003014,89.39791400003014,89.39791400003014,,,,,,testh,2023-06-23_19h51.56.103,Pattern_1,2022.2.4,None,
slf12.xlsx,obs12.xlsx,test12.xlsx,,,,,,,,,,,,,,4,3,1,0,1,1,1,,,,,,,,,,,,,0,27,27,27,,,,,,,,,,,,,,,,,,,,,,,,,,,,,,,,,,,,,,,,,,,,,,,,,,,,,,,,,,,,,,,,,89.39791400003014,89.48283287498634,89.48283287498634,89.48283287498634,89.56944337498862,89.56944337498862,89.56944337498862,89.59597358398605,None,0,89.59597358398605,89.59597358398605,89.59597358398605,89.59597358398605,89.69598979200236,89.69598979200236,89.69598979200236,89.69598979200236,89.69598979200236,89.69598979200236,89.69598979200236,89.69598979200236,89.934601749992,89.934601749992,89.934601749992,89.934601749992,,,,,,testh,2023-06-23_19h51.56.103,Pattern_1,2022.2.4,None,
slf12.xlsx,obs12.xlsx,test12.xlsx,,,,,,,,,,,,,,4,2,2,0,1,1,1,,,,,,,,,,,,,0,28,28,28,,,,,,,,,,,,,,,,,,,,,,,,,,,,,,,,,,,,,,,,,,,,,,,,,,,,,,,,,,,,,,,,,89.934601749992,90.01887558400631,90.01887558400631,90.01887558400631,90.11626545898616,90.11626545898616,90.11626545898616,90.13270779204322,None,0,90.13270779204322,90.13270779204322,90.13270779204322,90.13270779204322,90.22980229201494,90.22980229201494,90.22980229201494,90.22980229201494,90.22980229201494,90.22980229201494,90.22980229201494,90.22980229201494,90.39834504202008,90.39834504202008,90.39834504202008,90.39834504202008,,,,,,testh,2023-06-23_19h51.56.103,Pattern_1,2022.2.4,None,
slf12.xlsx,obs12.xlsx,test12.xlsx,,,,,,,,,,,,,,4,6,0,0,1,1,1,,,,,,,,,,,,,0,29,29,29,,,,,,,,,,,,,,,,,,,,,,,,,,,,,,,,,,,,,,,,,,,,,,,,,,,,,,,,,,,,,,,,,90.39834504202008,90.48282808403019,90.48282808403019,90.48282808403019,90.56896258401684,90.56896258401684,90.56896258401684,90.59523400000762,None,0,90.59523400000762,90.59523400000762,90.59523400000762,90.59523400000762,90.69561425002757,90.69561425002757,90.69561425002757,90.69561425002757,90.69561425002757,90.69561425002757,90.69561425002757,90.69561425002757,90.90920183400158,90.90920183400158,90.90920183400158,90.90920183400158,,,,,,testh,2023-06-23_19h51.56.103,Pattern_1,2022.2.4,None,
slf12.xlsx,obs12.xlsx,test12.xlsx,,,,,,,,,,,,,,,,,0,1,1,1,,,,,,,,,,,,,,,,,,,,,,,,,,,,,,,,,,,,,,,,,,,,,,,,,,,,,,,,,,,,,,,,,,,,,,,,,,,,,,,,,,,,,,,,,,,,,,,,,,,,,,,,,,,90.90920183400158,90.90920183400158,space,2.3270538739743643,,testh,2023-06-23_19h51.56.103,Pattern_1,2022.2.4,None,
slf13.xlsx,obs13.xlsx,test13.xlsx,0,1,2,40,30,,,,,,,,,,,,0,2,2,2,0,0,0,0,,,,,,,,,,,,,,,,,,,,,96.24188070901437,98.25451816699933,98.25451816699933,98.3357742500375,98.3357742500375,98.3357742500375,98.43274979200214,98.43274979200214,98.43274979200214,98.4630702920258,None,0,98.4630702920258,98.4630702920258,98.4630702920258,98.4630702920258,98.56339629204012,98.56339629204012,98.56339629204012,98.56339629204012,98.56339629204012,98.56339629204012,98.56339629204012,98.56339629204012,98.73483491700608,98.73483491700608,98.73483491700608,98.73483491700608,,,,,,,,,,,,,,,,,,,,,,,,,,,,,,,,,,,,,,,,,,,,,,,,,,,,,,,,,,,,testh,2023-06-23_19h51.56.103,Pattern_1,2022.2.4,None,
slf13.xlsx,obs13.xlsx,test13.xlsx,0,2,1,40,50,,,,,,,,,,,,0,2,2,2,0,1,1,1,,,,,,,,,,,,,,,,,,,,,,,98.73483491700608,98.81866475002607,98.81866475002607,98.81866475002607,98.91602775000501,98.91602775000501,98.91602775000501,98.93256891699275,None,0,98.93256891699275,98.93256891699275,98.93256891699275,98.93256891699275,99.0296743750223,99.0296743750223,99.0296743750223,99.0296743750223,99.0296743750223,99.0296743750223,99.0296743750223,99.0296743750223,99.20116641704226,99.20116641704226,99.20116641704226,99.20116641704226,,,,,,,,,,,,,,,,,,,,,,,,,,,,,,,,,,,,,,,,,,,,,,,,,,,,,,,,,,,,testh,2023-06-23_19h51.56.103,Pattern_1,2022.2.4,None,
slf13.xlsx,obs13.xlsx,test13.xlsx,0,3,2,30,50,,,,,,,,,,,,0,2,2,2,0,2,2,2,,,,,,,,,,,,,,,,,,,,,,,99.20116641704226,99.2856491249986,99.2856491249986,99.2856491249986,99.38274891703622,99.38274891703622,99.38274891703622,99.39928354200674,None,0,99.39928354200674,99.39928354200674,99.39928354200674,99.39928354200674,99.4953389170114,99.4953389170114,99.4953389170114,99.4953389170114,99.4953389170114,99.4953389170114,99.4953389170114,99.4953389170114,99.66785033402266,99.66785033402266,99.66785033402266,99.66785033402266,,,,,,,,,,,,,,,,,,,,,,,,,,,,,,,,,,,,,,,,,,,,,,,,,,,,,,,,,,,,testh,2023-06-23_19h51.56.103,Pattern_1,2022.2.4,None,
slf13.xlsx,obs13.xlsx,test13.xlsx,0,2,2,50,40,,,,,,,,,,,,0,2,2,2,0,3,3,3,,,,,,,,,,,,,,,,,,,,,,,99.66785033402266,99.75210166699253,99.75210166699253,99.75210166699253,99.8494794589933,99.8494794589933,99.8494794589933,99.86597541702213,None,0,99.86597541702213,99.86597541702213,99.86597541702213,99.86597541702213,99.96208070899593,99.96208070899593,99.96208070899593,99.96208070899593,99.96208070899593,99.96208070899593,99.96208070899593,99.96208070899593,100.13472658401588,100.13472658401588,100.13472658401588,100.13472658401588,,,,,,,,,,,,,,,,,,,,,,,,,,,,,,,,,,,,,,,,,,,,,,,,,,,,,,,,,,,,testh,2023-06-23_19h51.56.103,Pattern_1,2022.2.4,None,
slf13.xlsx,obs13.xlsx,test13.xlsx,0,1,1,30,40,,,,,,,,,,,,0,2,2,2,0,4,4,4,,,,,,,,,,,,,,,,,,,,,,,100.13472658401588,100.21873299998697,100.21873299998697,100.21873299998697,100.31608408404281,100.31608408404281,100.31608408404281,100.33256337500643,None,0,100.33256337500643,100.33256337500643,100.33256337500643,100.33256337500643,100.42976420902414,100.42976420902414,100.42976420902414,100.42976420902414,100.42976420902414,100.42976420902414,100.42976420902414,100.42976420902414,100.60144633403979,100.60144633403979,100.60144633403979,100.60144633403979,,,,,,,,,,,,,,,,,,,,,,,,,,,,,,,,,,,,,,,,,,,,,,,,,,,,,,,,,,,,testh,2023-06-23_19h51.56.103,Pattern_1,2022.2.4,None,
slf13.xlsx,obs13.xlsx,test13.xlsx,0,3,1,50,30,,,,,,,,,,,,0,2,2,2,0,5,5,5,,,,,,,,,,,,,,,,,,,,,,,100.60144633403979,100.68547654204303,100.68547654204303,100.68547654204303,100.78276991698658,100.78276991698658,100.78276991698658,100.79925445903791,None,0,100.79925445903791,100.79925445903791,100.79925445903791,100.79925445903791,100.89528233400779,100.89528233400779,100.89528233400779,100.89528233400779,100.89528233400779,100.89528233400779,100.89528233400779,100.89528233400779,101.06866604200331,101.06866604200331,101.06866604200331,101.06866604200331,,,,,,,,,,,,,,,,,,,,,,,,,,,,,,,,,,,,,,,,,,,,,,,,,,,,,,,,,,,,testh,2023-06-23_19h51.56.103,Pattern_1,2022.2.4,None,
slf13.xlsx,obs13.xlsx,test13.xlsx,0,1,2,40,30,,,,,,,,,,,,0,2,2,2,0,6,6,6,,,,,,,,,,,,,,,,,,,,,,,101.06866604200331,101.15227087499807,101.15227087499807,101.15227087499807,101.24936166702537,101.24936166702537,101.24936166702537,101.26593691704329,None,0,101.26593691704329,101.26593691704329,101.26593691704329,101.26593691704329,101.36264170904178,101.36264170904178,101.36264170904178,101.36264170904178,101.36264170904178,101.36264170904178,101.36264170904178,101.36264170904178,101.60411833401304,101.60411833401304,101.60411833401304,101.60411833401304,,,,,,,,,,,,,,,,,,,,,,,,,,,,,,,,,,,,,,,,,,,,,,,,,,,,,,,,,,,,testh,2023-06-23_19h51.56.103,Pattern_1,2022.2.4,None,
slf13.xlsx,obs13.xlsx,test13.xlsx,0,3,2,30,50,,,,,,,,,,,,0,2,2,2,0,7,7,7,,,,,,,,,,,,,,,,,,,,,,,101.60411833401304,101.68590224999934,101.68590224999934,101.68590224999934,101.78272591700079,101.78272591700079,101.78272591700079,101.8116511250264,None,0,101.8116511250264,101.8116511250264,101.8116511250264,101.8116511250264,101.91172999999253,101.91172999999253,101.91172999999253,101.91172999999253,101.91172999999253,101.91172999999253,101.91172999999253,101.91172999999253,102.08597208402352,102.08597208402352,102.08597208402352,102.08597208402352,,,,,,,,,,,,,,,,,,,,,,,,,,,,,,,,,,,,,,,,,,,,,,,,,,,,,,,,,,,,testh,2023-06-23_19h51.56.103,Pattern_1,2022.2.4,None,
slf13.xlsx,obs13.xlsx,test13.xlsx,0,2,1,40,50,,,,,,,,,,,,0,2,2,2,0,8,8,8,,,,,,,,,,,,,,,,,,,,,,,102.08597208402352,102.16926225001225,102.16926225001225,102.16926225001225,102.26606191700557,102.26606191700557,102.26606191700557,102.28262549999636,None,0,102.28262549999636,102.28262549999636,102.28262549999636,102.28262549999636,102.37861445901217,102.37861445901217,102.37861445901217,102.37861445901217,102.37861445901217,102.37861445901217,102.37861445901217,102.37861445901217,102.55367412499618,102.55367412499618,102.55367412499618,102.55367412499618,,,,,,,,,,,,,,,,,,,,,,,,,,,,,,,,,,,,,,,,,,,,,,,,,,,,,,,,,,,,testh,2023-06-23_19h51.56.103,Pattern_1,2022.2.4,None,
slf13.xlsx,obs13.xlsx,test13.xlsx,None,None,None,None,None,,,,,,,,,,,,0,2,2,2,0,9,9,9,,,,,,,,,,,,,,,,,,,,,,,102.55367412499618,102.63543970900355,102.63543970900355,102.63543970900355,102.73286354204174,102.73286354204174,102.73286354204174,102.76221720903413,None,0,102.76221720903413,102.76221720903413,102.76221720903413,102.76221720903413,102.86248062498635,102.86248062498635,102.86248062498635,102.86248062498635,102.86248062498635,102.86248062498635,102.86248062498635,102.86248062498635,103.03728754201438,103.03728754201438,103.03728754201438,103.03728754201438,,,,,,,,,,,,,,,,,,,,,,,,,,,,,,,,,,,,,,,,,,,,,,,,,,,,,,,,,,,,testh,2023-06-23_19h51.56.103,Pattern_1,2022.2.4,None,
slf13.xlsx,obs13.xlsx,test13.xlsx,None,None,None,None,None,,,,,,,,,,,,0,2,2,2,0,10,10,10,,,,,,,,,,,,,,,,,,,,,,,103.03728754201438,103.11918224999681,103.11918224999681,103.11918224999681,103.21697499998845,103.21697499998845,103.21697499998845,103.2453914170037,None,0,103.2453914170037,103.2453914170037,103.2453914170037,103.2453914170037,103.34536445903359,103.34536445903359,103.34536445903359,103.34536445903359,103.34536445903359,103.34536445903359,103.34536445903359,103.34536445903359,103.52092129201628,103.52092129201628,103.52092129201628,103.52092129201628,,,,,,,,,,,,,,,,,,,,,,,,,,,,,,,,,,,,,,,,,,,,,,,,,,,,,,,,,,,,testh,2023-06-23_19h51.56.103,Pattern_1,2022.2.4,None,
slf13.xlsx,obs13.xlsx,test13.xlsx,None,None,None,None,None,,,,,,,,,,,,0,2,2,2,0,11,11,11,,,,,,,,,,,,,,,,,,,,,,,103.52092129201628,103.60209395899437,103.60209395899437,103.60209395899437,103.69937608402688,103.69937608402688,103.69937608402688,103.72841091704322,None,0,103.72841091704322,103.72841091704322,103.72841091704322,103.72841091704322,103.82884075003676,103.82884075003676,103.82884075003676,103.82884075003676,103.82884075003676,103.82884075003676,103.82884075003676,103.82884075003676,104.04519179201452,104.04519179201452,104.04519179201452,104.04519179201452,,,,,,,,,,,,,,,,,,,,,,,,,,,,,,,,,,,,,,,,,,,,,,,,,,,,,,,,,,,,testh,2023-06-23_19h51.56.103,Pattern_1,2022.2.4,None,
slf13.xlsx,obs13.xlsx,test13.xlsx,,,,,,0,1,1,left,low,0,0.5,0.5,,,,0,2,2,2,,,,,,,,,0,0,0,0,,,,,,,,,,,,,,,,,,,,,,,,,,,,,,,,,,,,,,,,,104.04519179201452,106.02575995901134,106.08569691702724,106.08569691702724,106.58562470902689,106.68304537498625,106.68304537498625,106.68304537498625,106.7191001669853,106.7191001669853,106.7191001669853,106.7191001669853,106.7191001669853,106.8025781250326,106.89934833400184,107.31945187499514,107.31945187499514,107.31945187499514,107.31945187499514,107.31945187499514,107.31945187499514,107.31945187499514,107.31945187499514,107.52146216703113,107.52146216703113,107.52146216703113,107.52146216703113,,,,,,,,,,,,,,,,,,,,,,,,,,,,,,,,,testh,2023-06-23_19h51.56.103,Pattern_1,2022.2.4,None,
slf13.xlsx,obs13.xlsx,test13.xlsx,,,,,,0,2,2,right,high,0,0.5,0.5,,,,0,2,2,2,,,,,,,,,0,1,1,1,,,,,,,,,,,,,,,,,,,,,,,,,,,,,,,,,,,,,,,,,,107.52146216703113,107.60229012503987,107.60229012503987,108.102073209011,108.1994876670069,108.1994876670069,108.1994876670069,108.22062087501399,108.22062087501399,108.22062087501399,108.22062087501399,108.22062087501399,108.31597699999111,108.40205245901598,108.82952954201028,108.82952954201028,108.82952954201028,108.82952954201028,108.82952954201028,108.82952954201028,108.82952954201028,108.82952954201028,109.00859320902964,109.00859320902964,109.00859320902964,109.00859320902964,,,,,,,,,,,,,,,,,,,,,,,,,,,,,,,,,testh,2023-06-23_19h51.56.103,Pattern_1,2022.2.4,None,
slf13.xlsx,obs13.xlsx,test13.xlsx,,,,,,0,3,1,left,low,0,0.5,0.5,,,,0,2,2,2,,,,,,,,,0,2,2,2,,,,,,,,,,,,,,,,,,,,,,,,,,,,,,,,,,,,,,,,,,109.00859320902964,109.0853756670258,109.0853756670258,109.58530545904068,109.68263133399887,109.68263133399887,109.68263133399887,109.70221487502567,109.70221487502567,109.70221487502567,109.70221487502567,109.70221487502567,109.78569583402714,109.88266829203349,110.29912166699069,110.29912166699069,110.29912166699069,110.29912166699069,110.29912166699069,110.29912166699069,110.29912166699069,110.29912166699069,110.4747479170328,110.4747479170328,110.4747479170328,110.4747479170328,,,,,,,,,,,,,,,,,,,,,,,,,,,,,,,,,testh,2023-06-23_19h51.56.103,Pattern_1,2022.2.4,None,
slf13.xlsx,obs13.xlsx,test13.xlsx,,,,,,0,2,1,right,high,0,0.5,0.5,,,,0,2,2,2,,,,,,,,,0,3,3,3,,,,,,,,,,,,,,,,,,,,,,,,,,,,,,,,,,,,,,,,,,110.4747479170328,110.55196954199346,110.55196954199346,111.05212737503462,111.14939458400477,111.14939458400477,111.14939458400477,111.16903941700002,111.16903941700002,111.16903941700002,111.16903941700002,111.16903941700002,111.25218333402881,111.34933091700077,111.7659393750364,111.7659393750364,111.7659393750364,111.7659393750364,111.7659393750364,111.7659393750364,111.7659393750364,111.7659393750364,112.01206604199251,112.01206604199251,112.01206604199251,112.01206604199251,,,,,,,,,,,,,,,,,,,,,,,,,,,,,,,,,testh,2023-06-23_19h51.56.103,Pattern_1,2022.2.4,None,
slf13.xlsx,obs13.xlsx,test13.xlsx,,,,,,0,1,2,left,low,0,0.5,0.5,,,,0,2,2,2,,,,,,,,,0,4,4,4,,,,,,,,,,,,,,,,,,,,,,,,,,,,,,,,,,,,,,,,,,112.01206604199251,112.08576854201965,112.08576854201965,112.58546525001293,112.68266799999401,112.68266799999401,112.68266799999401,112.70227470900863,112.70227470900863,112.70227470900863,112.70227470900863,112.70227470900863,112.78547458403045,112.88267470902065,113.29912054201122,113.29912054201122,113.29912054201122,113.29912054201122,113.29912054201122,113.29912054201122,113.29912054201122,113.29912054201122,113.48481066699605,113.48481066699605,113.48481066699605,113.48481066699605,,,,,,,,,,,,,,,,,,,,,,,,,,,,,,,,,testh,2023-06-23_19h51.56.103,Pattern_1,2022.2.4,None,
slf13.xlsx,obs13.xlsx,test13.xlsx,,,,,,0,3,2,right,high,0,0.5,0.5,,,,0,2,2,2,,,,,,,,,0,5,5,5,,,,,,,,,,,,,,,,,,,,,,,,,,,,,,,,,,,,,,,,,,113.48481066699605,113.56874679203611,113.56874679203611,114.06865720899077,114.16596658399794,114.16596658399794,114.16596658399794,114.18263208400458,114.18263208400458,114.18263208400458,114.18263208400458,114.18263208400458,114.26598033402115,114.3521644170396,114.77777458401397,114.77777458401397,114.77777458401397,114.77777458401397,114.77777458401397,114.77777458401397,114.77777458401397,114.77777458401397,114.95947570900898,114.95947570900898,114.95947570900898,114.95947570900898,,,,,,,,,,,,,,,,,,,,,,,,,,,,,,,,,testh,2023-06-23_19h51.56.103,Pattern_1,2022.2.4,None,
slf13.xlsx,obs13.xlsx,test13.xlsx,,,,,,0,1,1,left,low,0,0.5,0.5,,,,0,2,2,2,,,,,,,,,0,6,6,6,,,,,,,,,,,,,,,,,,,,,,,,,,,,,,,,,,,,,,,,,,114.95947570900898,115.03509033401497,115.03509033401497,115.53562450001482,115.63257391704246,115.63257391704246,115.63257391704246,115.65223816700745,115.65223816700745,115.65223816700745,115.65223816700745,115.65223816700745,115.73556016699877,115.83258320903406,116.24910075002117,116.24910075002117,116.24910075002117,116.24910075002117,116.24910075002117,116.24910075002117,116.24910075002117,116.24910075002117,116.42526433401508,116.42526433401508,116.42526433401508,116.42526433401508,,,,,,,,,,,,,,,,,,,,,,,,,,,,,,,,,testh,2023-06-23_19h51.56.103,Pattern_1,2022.2.4,None,
slf13.xlsx,obs13.xlsx,test13.xlsx,,,,,,0,3,1,right,high,0,0.5,0.5,,,,0,2,2,2,,,,,,,,,0,7,7,7,,,,,,,,,,,,,,,,,,,,,,,,,,,,,,,,,,,,,,,,,,116.42526433401508,116.50225766701624,116.50225766701624,117.0023274589912,117.09929054201348,117.09929054201348,117.09929054201348,117.12064775003819,117.12064775003819,117.12064775003819,117.12064775003819,117.12064775003819,117.21593629202107,117.3027377090184,117.72768758400343,117.72768758400343,117.72768758400343,117.72768758400343,117.72768758400343,117.72768758400343,117.72768758400343,117.72768758400343,117.91151983401505,117.91151983401505,117.91151983401505,117.91151983401505,,,,,,,,,,,,,,,,,,,,,,,,,,,,,,,,,testh,2023-06-23_19h51.56.103,Pattern_1,2022.2.4,None,
slf13.xlsx,obs13.xlsx,test13.xlsx,,,,,,0,2,2,left,low,0,0.5,0.5,,,,0,2,2,2,,,,,,,,,0,8,8,8,,,,,,,,,,,,,,,,,,,,,,,,,,,,,,,,,,,,,,,,,,117.91151983401505,117.98506779200397,117.98506779200397,118.48522679199232,118.58262383402325,118.58262383402325,118.58262383402325,118.60232295899186,118.60232295899186,118.60232295899186,118.60232295899186,118.60232295899186,118.6854742920259,118.78257945901714,119.1990939170355,119.1990939170355,119.1990939170355,119.1990939170355,119.1990939170355,119.1990939170355,119.1990939170355,119.1990939170355,119.4155986669939,119.4155986669939,119.4155986669939,119.4155986669939,,,,,,,,,,,,,,,,,,,,,,,,,,,,,,,,,testh,2023-06-23_19h51.56.103,Pattern_1,2022.2.4,None,
slf13.xlsx,obs13.xlsx,test13.xlsx,,,,,,,,,,,,,,1,1,1,0,2,2,2,,,,,,,,,,,,,0,0,0,0,,,,,,,,,,,,,,,,,,,,,,,,,,,,,,,,,,,,,,,,,,,,,,,,,,,,,,,,,,,,,,,,119.4155986669939,121.39190883398987,121.45193833403755,121.45193833403755,121.45193833403755,121.54922329203691,121.54922329203691,121.54922329203691,121.59579891699832,None,0,121.59579891699832,121.59579891699832,121.59579891699832,121.59579891699832,121.69579329201952,121.69579329201952,121.69579329201952,121.69579329201952,121.69579329201952,121.69579329201952,121.69579329201952,121.69579329201952,121.87864075001562,121.87864075001562,121.87864075001562,121.87864075001562,,,,,,testh,2023-06-23_19h51.56.103,Pattern_1,2022.2.4,None,
slf13.xlsx,obs13.xlsx,test13.xlsx,,,,,,,,,,,,,,1,1,2,0,2,2,2,,,,,,,,,,,,,0,1,1,1,,,,,,,,,,,,,,,,,,,,,,,,,,,,,,,,,,,,,,,,,,,,,,,,,,,,,,,,,,,,,,,,,121.87864075001562,121.95194629201433,121.95194629201433,121.95194629201433,122.04947691701818,122.04947691701818,122.04947691701818,122.0804425420356,None,0,122.0804425420356,122.0804425420356,122.0804425420356,122.0804425420356,122.1793515420286,122.1793515420286,122.1793515420286,122.1793515420286,122.1793515420286,122.1793515420286,122.1793515420286,122.1793515420286,122.36380200000713,122.36380200000713,122.36380200000713,122.36380200000713,,,,,,testh,2023-06-23_19h51.56.103,Pattern_1,2022.2.4,None,
slf13.xlsx,obs13.xlsx,test13.xlsx,,,,,,,,,,,,,,1,2,1,0,2,2,2,,,,,,,,,,,,,0,2,2,2,,,,,,,,,,,,,,,,,,,,,,,,,,,,,,,,,,,,,,,,,,,,,,,,,,,,,,,,,,,,,,,,,122.36380200000713,122.4493255839916,122.4493255839916,122.4493255839916,122.53519970900379,122.53519970900379,122.53519970900379,122.56301079201512,None,0,122.56301079201512,122.56301079201512,122.56301079201512,122.56301079201512,122.66254120902158,122.66254120902158,122.66254120902158,122.66254120902158,122.66254120902158,122.66254120902158,122.66254120902158,122.66254120902158,122.91614687500987,122.91614687500987,122.91614687500987,122.91614687500987,,,,,,testh,2023-06-23_19h51.56.103,Pattern_1,2022.2.4,None,
slf13.xlsx,obs13.xlsx,test13.xlsx,,,,,,,,,,,,,,1,2,2,0,2,2,2,,,,,,,,,,,,,0,3,3,3,,,,,,,,,,,,,,,,,,,,,,,,,,,,,,,,,,,,,,,,,,,,,,,,,,,,,,,,,,,,,,,,,122.91614687500987,123.00187191698933,123.00187191698933,123.00187191698933,123.09924529201817,123.09924529201817,123.09924529201817,123.11160454200581,None,0,123.11160454200581,123.11160454200581,123.11160454200581,123.11160454200581,123.2120581670315,123.2120581670315,123.2120581670315,123.2120581670315,123.2120581670315,123.2120581670315,123.2120581670315,123.2120581670315,123.39621229202021,123.39621229202021,123.39621229202021,123.39621229202021,,,,,,testh,2023-06-23_19h51.56.103,Pattern_1,2022.2.4,None,
slf13.xlsx,obs13.xlsx,test13.xlsx,,,,,,,,,,,,,,1,3,1,0,2,2,2,,,,,,,,,,,,,0,4,4,4,,,,,,,,,,,,,,,,,,,,,,,,,,,,,,,,,,,,,,,,,,,,,,,,,,,,,,,,,,,,,,,,,123.39621229202021,123.4825033340021,123.4825033340021,123.4825033340021,123.56827137502842,123.56827137502842,123.56827137502842,123.5947630419978,None,0,123.5947630419978,123.5947630419978,123.5947630419978,123.5947630419978,123.6953088750015,123.6953088750015,123.6953088750015,123.6953088750015,123.6953088750015,123.6953088750015,123.6953088750015,123.6953088750015,123.87938283401309,123.87938283401309,123.87938283401309,123.87938283401309,,,,,,testh,2023-06-23_19h51.56.103,Pattern_1,2022.2.4,None,
slf13.xlsx,obs13.xlsx,test13.xlsx,,,,,,,,,,,,,,1,3,2,0,2,2,2,,,,,,,,,,,,,0,5,5,5,,,,,,,,,,,,,,,,,,,,,,,,,,,,,,,,,,,,,,,,,,,,,,,,,,,,,,,,,,,,,,,,,123.87938283401309,123.96584300004179,123.96584300004179,123.96584300004179,124.0517631249968,124.0517631249968,124.0517631249968,124.0780749170226,None,0,124.0780749170226,124.0780749170226,124.0780749170226,124.0780749170226,124.17846416699467,124.17846416699467,124.17846416699467,124.17846416699467,124.17846416699467,124.17846416699467,124.17846416699467,124.17846416699467,124.36432158399839,124.36432158399839,124.36432158399839,124.36432158399839,,,,,,testh,2023-06-23_19h51.56.103,Pattern_1,2022.2.4,None,
slf13.xlsx,obs13.xlsx,test13.xlsx,,,,,,,,,,,,,,2,1,1,0,2,2,2,,,,,,,,,,,,,0,6,6,6,,,,,,,,,,,,,,,,,,,,,,,,,,,,,,,,,,,,,,,,,,,,,,,,,,,,,,,,,,,,,,,,,124.36432158399839,124.44919150002534,124.44919150002534,124.44919150002534,124.53501695900923,124.53501695900923,124.53501695900923,124.56185375002678,None,0,124.56185375002678,124.56185375002678,124.56185375002678,124.56185375002678,124.66214487503748,124.66214487503748,124.66214487503748,124.66214487503748,124.66214487503748,124.66214487503748,124.66214487503748,124.66214487503748,124.84750516701024,124.84750516701024,124.84750516701024,124.84750516701024,,,,,,testh,2023-06-23_19h51.56.103,Pattern_1,2022.2.4,None,
slf13.xlsx,obs13.xlsx,test13.xlsx,,,,,,,,,,,,,,2,1,2,0,2,2,2,,,,,,,,,,,,,0,7,7,7,,,,,,,,,,,,,,,,,,,,,,,,,,,,,,,,,,,,,,,,,,,,,,,,,,,,,,,,,,,,,,,,,124.84750516701024,124.93254833400715,124.93254833400715,124.93254833400715,125.01874508400215,125.01874508400215,125.01874508400215,125.04518762498628,None,0,125.04518762498628,125.04518762498628,125.04518762498628,125.04518762498628,125.14544870902319,125.14544870902319,125.14544870902319,125.14544870902319,125.14544870902319,125.14544870902319,125.14544870902319,125.14544870902319,125.33284862502478,125.33284862502478,125.33284862502478,125.33284862502478,,,,,,testh,2023-06-23_19h51.56.103,Pattern_1,2022.2.4,None,
slf13.xlsx,obs13.xlsx,test13.xlsx,,,,,,,,,,,,,,2,2,1,0,2,2,2,,,,,,,,,,,,,0,8,8,8,,,,,,,,,,,,,,,,,,,,,,,,,,,,,,,,,,,,,,,,,,,,,,,,,,,,,,,,,,,,,,,,,125.33284862502478,125.41861570900073,125.41861570900073,125.41861570900073,125.51592137501575,125.51592137501575,125.51592137501575,125.52969891700195,None,0,125.52969891700195,125.52969891700195,125.52969891700195,125.52969891700195,125.63005970901577,125.63005970901577,125.63005970901577,125.63005970901577,125.63005970901577,125.63005970901577,125.63005970901577,125.63005970901577,125.81585608399473,125.81585608399473,125.81585608399473,125.81585608399473,,,,,,testh,2023-06-23_19h51.56.103,Pattern_1,2022.2.4,None,
slf13.xlsx,obs13.xlsx,test13.xlsx,,,,,,,,,,,,,,2,2,2,0,2,2,2,,,,,,,,,,,,,0,9,9,9,,,,,,,,,,,,,,,,,,,,,,,,,,,,,,,,,,,,,,,,,,,,,,,,,,,,,,,,,,,,,,,,,125.81585608399473,125.8991342500085,125.8991342500085,125.8991342500085,125.98523637501057,125.98523637501057,125.98523637501057,126.01311912504025,None,0,126.01311912504025,126.01311912504025,126.01311912504025,126.01311912504025,126.11303879204206,126.11303879204206,126.11303879204206,126.11303879204206,126.11303879204206,126.11303879204206,126.11303879204206,126.11303879204206,126.36799695901573,126.36799695901573,126.36799695901573,126.36799695901573,,,,,,testh,2023-06-23_19h51.56.103,Pattern_1,2022.2.4,None,
slf13.xlsx,obs13.xlsx,test13.xlsx,,,,,,,,,,,,,,2,3,1,0,2,2,2,,,,,,,,,,,,,0,10,10,10,,,,,,,,,,,,,,,,,,,,,,,,,,,,,,,,,,,,,,,,,,,,,,,,,,,,,,,,,,,,,,,,,126.36799695901573,126.451886209019,126.451886209019,126.451886209019,126.54920037504053,126.54920037504053,126.54920037504053,126.5657205840107,None,0,126.5657205840107,126.5657205840107,126.5657205840107,126.5657205840107,126.6615386250196,126.6615386250196,126.6615386250196,126.6615386250196,126.6615386250196,126.6615386250196,126.6615386250196,126.6615386250196,126.85075933398912,126.85075933398912,126.85075933398912,126.85075933398912,,,,,,testh,2023-06-23_19h51.56.103,Pattern_1,2022.2.4,None,
slf13.xlsx,obs13.xlsx,test13.xlsx,,,,,,,,,,,,,,2,3,2,0,2,2,2,,,,,,,,,,,,,0,11,11,11,,,,,,,,,,,,,,,,,,,,,,,,,,,,,,,,,,,,,,,,,,,,,,,,,,,,,,,,,,,,,,,,,126.85075933398912,126.93515804200433,126.93515804200433,126.93515804200433,127.03253425000003,127.03253425000003,127.03253425000003,127.04911262501264,None,0,127.04911262501264,127.04911262501264,127.04911262501264,127.04911262501264,127.14471858402248,127.14471858402248,127.14471858402248,127.14471858402248,127.14471858402248,127.14471858402248,127.14471858402248,127.14471858402248,127.33253337501083,127.33253337501083,127.33253337501083,127.33253337501083,,,,,,testh,2023-06-23_19h51.56.103,Pattern_1,2022.2.4,None,
slf13.xlsx,obs13.xlsx,test13.xlsx,,,,,,,,,,,,,,3,4,0,0,2,2,2,,,,,,,,,,,,,0,12,12,12,,,,,,,,,,,,,,,,,,,,,,,,,,,,,,,,,,,,,,,,,,,,,,,,,,,,,,,,,,,,,,,,,127.33253337501083,127.41864450002322,127.41864450002322,127.41864450002322,127.5158366250107,127.5158366250107,127.5158366250107,127.5277340420289,None,0,127.5277340420289,127.5277340420289,127.5277340420289,127.5277340420289,127.62793562503066,127.62793562503066,127.62793562503066,127.62793562503066,127.62793562503066,127.62793562503066,127.62793562503066,127.62793562503066,127.81855975004146,127.81855975004146,127.81855975004146,127.81855975004146,,,,,,testh,2023-06-23_19h51.56.103,Pattern_1,2022.2.4,None,
slf13.xlsx,obs13.xlsx,test13.xlsx,,,,,,,,,,,,,,3,1,1,0,2,2,2,,,,,,,,,,,,,0,13,13,13,,,,,,,,,,,,,,,,,,,,,,,,,,,,,,,,,,,,,,,,,,,,,,,,,,,,,,,,,,,,,,,,,127.81855975004146,127.90244625002379,127.90244625002379,127.90244625002379,127.9991798340343,127.9991798340343,127.9991798340343,128.01566658401862,None,0,128.01566658401862,128.01566658401862,128.01566658401862,128.01566658401862,128.11306929204147,128.11306929204147,128.11306929204147,128.11306929204147,128.11306929204147,128.11306929204147,128.11306929204147,128.11306929204147,128.30149941699347,128.30149941699347,128.30149941699347,128.30149941699347,,,,,,testh,2023-06-23_19h51.56.103,Pattern_1,2022.2.4,None,
slf13.xlsx,obs13.xlsx,test13.xlsx,,,,,,,,,,,,,,3,3,2,0,2,2,2,,,,,,,,,,,,,0,14,14,14,,,,,,,,,,,,,,,,,,,,,,,,,,,,,,,,,,,,,,,,,,,,,,,,,,,,,,,,,,,,,,,,,128.30149941699347,128.38512362499023,128.38512362499023,128.38512362499023,128.4825890000211,128.4825890000211,128.4825890000211,128.49908350000624,None,0,128.49908350000624,128.49908350000624,128.49908350000624,128.49908350000624,128.59574287501164,128.59574287501164,128.59574287501164,128.59574287501164,128.59574287501164,128.59574287501164,128.59574287501164,128.59574287501164,128.7846822499996,128.7846822499996,128.7846822499996,128.7846822499996,,,,,,testh,2023-06-23_19h51.56.103,Pattern_1,2022.2.4,None,
slf13.xlsx,obs13.xlsx,test13.xlsx,,,,,,,,,,,,,,3,1,2,0,2,2,2,,,,,,,,,,,,,0,15,15,15,,,,,,,,,,,,,,,,,,,,,,,,,,,,,,,,,,,,,,,,,,,,,,,,,,,,,,,,,,,,,,,,,128.7846822499996,128.86825275002047,128.86825275002047,128.86825275002047,128.96583883400308,128.96583883400308,128.96583883400308,128.9824728340027,None,0,128.9824728340027,128.9824728340027,128.9824728340027,128.9824728340027,129.07796212501125,129.07796212501125,129.07796212501125,129.07796212501125,129.07796212501125,129.07796212501125,129.07796212501125,129.07796212501125,129.2701164589962,129.2701164589962,129.2701164589962,129.2701164589962,,,,,,testh,2023-06-23_19h51.56.103,Pattern_1,2022.2.4,None,
slf13.xlsx,obs13.xlsx,test13.xlsx,,,,,,,,,,,,,,3,5,0,0,2,2,2,,,,,,,,,,,,,0,16,16,16,,,,,,,,,,,,,,,,,,,,,,,,,,,,,,,,,,,,,,,,,,,,,,,,,,,,,,,,,,,,,,,,,129.2701164589962,129.35186412499752,129.35186412499752,129.35186412499752,129.44918662501732,129.44918662501732,129.44918662501732,129.47983200004091,None,0,129.47983200004091,129.47983200004091,129.47983200004091,129.47983200004091,129.57994787499774,129.57994787499774,129.57994787499774,129.57994787499774,129.57994787499774,129.57994787499774,129.57994787499774,129.57994787499774,129.8395854170085,129.8395854170085,129.8395854170085,129.8395854170085,,,,,,testh,2023-06-23_19h51.56.103,Pattern_1,2022.2.4,None,
slf13.xlsx,obs13.xlsx,test13.xlsx,,,,,,,,,,,,,,3,2,1,0,2,2,2,,,,,,,,,,,,,0,17,17,17,,,,,,,,,,,,,,,,,,,,,,,,,,,,,,,,,,,,,,,,,,,,,,,,,,,,,,,,,,,,,,,,,129.8395854170085,129.91824550001184,129.91824550001184,129.91824550001184,130.0158363340306,130.0158363340306,130.0158363340306,130.04600187501637,None,0,130.04600187501637,130.04600187501637,130.04600187501637,130.04600187501637,130.1458896670374,130.1458896670374,130.1458896670374,130.1458896670374,130.1458896670374,130.1458896670374,130.1458896670374,130.1458896670374,130.3360061669955,130.3360061669955,130.3360061669955,130.3360061669955,,,,,,testh,2023-06-23_19h51.56.103,Pattern_1,2022.2.4,None,
slf13.xlsx,obs13.xlsx,test13.xlsx,,,,,,,,,,,,,,3,3,1,0,2,2,2,,,,,,,,,,,,,0,18,18,18,,,,,,,,,,,,,,,,,,,,,,,,,,,,,,,,,,,,,,,,,,,,,,,,,,,,,,,,,,,,,,,,,130.3360061669955,130.4182340420084,130.4182340420084,130.4182340420084,130.515857624996,130.515857624996,130.515857624996,130.5437218750012,None,0,130.5437218750012,130.5437218750012,130.5437218750012,130.5437218750012,130.64396712504094,130.64396712504094,130.64396712504094,130.64396712504094,130.64396712504094,130.64396712504094,130.64396712504094,130.64396712504094,130.83808137499727,130.83808137499727,130.83808137499727,130.83808137499727,,,,,,testh,2023-06-23_19h51.56.103,Pattern_1,2022.2.4,None,
slf13.xlsx,obs13.xlsx,test13.xlsx,,,,,,,,,,,,,,3,2,2,0,2,2,2,,,,,,,,,,,,,0,19,19,19,,,,,,,,,,,,,,,,,,,,,,,,,,,,,,,,,,,,,,,,,,,,,,,,,,,,,,,,,,,,,,,,,130.83808137499727,130.91858816699823,130.91858816699823,130.91858816699823,131.01581441704184,131.01581441704184,131.01581441704184,131.04565320903203,None,0,131.04565320903203,131.04565320903203,131.04565320903203,131.04565320903203,131.14574175002053,131.14574175002053,131.14574175002053,131.14574175002053,131.14574175002053,131.14574175002053,131.14574175002053,131.14574175002053,131.33787137502804,131.33787137502804,131.33787137502804,131.33787137502804,,,,,,testh,2023-06-23_19h51.56.103,Pattern_1,2022.2.4,None,
slf13.xlsx,obs13.xlsx,test13.xlsx,,,,,,,,,,,,,,3,6,0,0,2,2,2,,,,,,,,,,,,,0,20,20,20,,,,,,,,,,,,,,,,,,,,,,,,,,,,,,,,,,,,,,,,,,,,,,,,,,,,,,,,,,,,,,,,,131.33787137502804,131.41835408401676,131.41835408401676,131.41835408401676,131.51578366704052,131.51578366704052,131.51578366704052,131.54485425003804,None,0,131.54485425003804,131.54485425003804,131.54485425003804,131.54485425003804,131.64553312503267,131.64553312503267,131.64553312503267,131.64553312503267,131.64553312503267,131.64553312503267,131.64553312503267,131.64553312503267,131.83787016698625,131.83787016698625,131.83787016698625,131.83787016698625,,,,,,testh,2023-06-23_19h51.56.103,Pattern_1,2022.2.4,None,
slf13.xlsx,obs13.xlsx,test13.xlsx,,,,,,,,,,,,,,4,4,0,0,2,2,2,,,,,,,,,,,,,0,21,21,21,,,,,,,,,,,,,,,,,,,,,,,,,,,,,,,,,,,,,,,,,,,,,,,,,,,,,,,,,,,,,,,,,131.83787016698625,131.91826000000583,131.91826000000583,131.91826000000583,132.0158044170239,132.0158044170239,132.0158044170239,132.04428329202347,None,0,132.04428329202347,132.04428329202347,132.04428329202347,132.04428329202347,132.14583412499633,132.14583412499633,132.14583412499633,132.14583412499633,132.14583412499633,132.14583412499633,132.14583412499633,132.14583412499633,132.34071504202439,132.34071504202439,132.34071504202439,132.34071504202439,,,,,,testh,2023-06-23_19h51.56.103,Pattern_1,2022.2.4,None,
slf13.xlsx,obs13.xlsx,test13.xlsx,,,,,,,,,,,,,,4,1,1,0,2,2,2,,,,,,,,,,,,,0,22,22,22,,,,,,,,,,,,,,,,,,,,,,,,,,,,,,,,,,,,,,,,,,,,,,,,,,,,,,,,,,,,,,,,,132.34071504202439,132.41912262502592,132.41912262502592,132.41912262502592,132.5157814170234,132.5157814170234,132.5157814170234,132.54440133401658,None,0,132.54440133401658,132.54440133401658,132.54440133401658,132.54440133401658,132.64473300002282,132.64473300002282,132.64473300002282,132.64473300002282,132.64473300002282,132.64473300002282,132.64473300002282,132.64473300002282,132.83797733404208,132.83797733404208,132.83797733404208,132.83797733404208,,,,,,testh,2023-06-23_19h51.56.103,Pattern_1,2022.2.4,None,
slf13.xlsx,obs13.xlsx,test13.xlsx,,,,,,,,,,,,,,4,3,2,0,2,2,2,,,,,,,,,,,,,0,23,23,23,,,,,,,,,,,,,,,,,,,,,,,,,,,,,,,,,,,,,,,,,,,,,,,,,,,,,,,,,,,,,,,,,132.83797733404208,132.91863841703162,132.91863841703162,132.91863841703162,133.0158100000117,133.0158100000117,133.0158100000117,133.0435697500361,None,0,133.0435697500361,133.0435697500361,133.0435697500361,133.0435697500361,133.1440132500138,133.1440132500138,133.1440132500138,133.1440132500138,133.1440132500138,133.1440132500138,133.1440132500138,133.1440132500138,133.41241920902394,133.41241920902394,133.41241920902394,133.41241920902394,,,,,,testh,2023-06-23_19h51.56.103,Pattern_1,2022.2.4,None,
slf13.xlsx,obs13.xlsx,test13.xlsx,,,,,,,,,,,,,,4,1,2,0,2,2,2,,,,,,,,,,,,,0,24,24,24,,,,,,,,,,,,,,,,,,,,,,,,,,,,,,,,,,,,,,,,,,,,,,,,,,,,,,,,,,,,,,,,,133.41241920902394,133.48503679200076,133.48503679200076,133.48503679200076,133.58241979201557,133.58241979201557,133.58241979201557,133.61278104200028,None,0,133.61278104200028,133.61278104200028,133.61278104200028,133.61278104200028,133.71318545902614,133.71318545902614,133.71318545902614,133.71318545902614,133.71318545902614,133.71318545902614,133.71318545902614,133.71318545902614,133.90901237499202,133.90901237499202,133.90901237499202,133.90901237499202,,,,,,testh,2023-06-23_19h51.56.103,Pattern_1,2022.2.4,None,
