slf_file,obs_file,test_file,slf_condition,slf_pair_pat,slf_order_pat,slf_conf_pat,slf_reward_left,slf_reward_right,obs_condition,obs_pair_pat,obs_order_pat,obs_conf_pat,obs_reward_left,obs_reward_right,obs_pos_chosen,obs_conf,obs_reward,obs_img_time,obs_conf_time,test_condition,test_pair_pat,test_order_pat,test_conf_pat,BlockLoop.thisRepN,BlockLoop.thisTrialN,BlockLoop.thisN,BlockLoop.thisIndex,SlfSequence.thisRepN,SlfSequence.thisTrialN,SlfSequence.thisN,SlfSequence.thisIndex,SlfSkip.thisRepN,SlfSkip.thisTrialN,SlfSkip.thisN,SlfSkip.thisIndex,ObsSequence.thisRepN,ObsSequence.thisTrialN,ObsSequence.thisN,ObsSequence.thisIndex,TestSequence.thisRepN,TestSequence.thisTrialN,TestSequence.thisN,TestSequence.thisIndex,TestSkip.thisRepN,TestSkip.thisTrialN,TestSkip.thisN,TestSkip.thisIndex,STANDBY_TEXT.started,STANDBY_RESP.started,STANDBY_RESP.keys,STANDBY_RESP.rt,SLF_INSTR.started,SLF_IMG_FIX.started,SLF_IMG_LEFT.started,SLF_IMG_RIGHT.started,SLF_IMG_RESP.started,SLF_IMG_LEFT.stopped,SLF_IMG_RIGHT.stopped,SLF_IMG_RESP.stopped,SLF_IMG_FIX.stopped,SLF_IMG_RESP.keys,SLF_IMG_RESP.corr,SLF_IMGFB_FIX.started,SLF_IMGFB_FRAME.started,SLF_IMGFB_IMG_LEFT.started,SLF_IMGFB_IMG_RIGHT.started,SLF_IMGFB_FIX.stopped,SLF_IMGFB_FRAME.stopped,SLF_IMGFB_IMG_LEFT.stopped,SLF_IMGFB_IMG_RIGHT.stopped,SLF_REWARD_FRAME.started,SLF_REWARD_IMG_LEFT.started,SLF_REWARD_IMG_RIGHT.started,SLF_REWARD_TEXT.started,SLF_REWARD_FRAME.stopped,SLF_REWARD_IMG_LEFT.stopped,SLF_REWARD_IMG_RIGHT.stopped,SLF_REWARD_TEXT.stopped,OBS_INSTR.started,OBS_IMG_FIX.started,OBS_IMG_LEFT.started,OBS_IMG_RIGHT.started,OBS_IMGFB_FRAME.started,OBS_IMG_FIX.stopped,OBS_IMG_LEFT.stopped,OBS_IMG_RIGHT.stopped,OBS_IMGFB_FRAME.stopped,OBS_CONF_FIX.started,OBS_CONF_LOW_BOX.started,OBS_CONF_LOW_TEXT.started,OBS_CONF_HIGH_BOX.started,OBS_CONF_HIGH_TEXT.started,OBS_CONFFB_FRAME.started,OBS_CONF_FIX.stopped,OBS_CONF_LOW_BOX.stopped,OBS_CONF_LOW_TEXT.stopped,OBS_CONF_HIGH_BOX.stopped,OBS_CONF_HIGH_TEXT.stopped,OBS_CONFFB_FRAME.stopped,OBS_REWARD_FRAME.started,OBS_REWARD_IMG_LEFT.started,OBS_REWARD_IMG_RIGHT.started,OBS_REWARD_TEXT.started,OBS_REWARD_FRAME.stopped,OBS_REWARD_IMG_LEFT.stopped,OBS_REWARD_IMG_RIGHT.stopped,OBS_REWARD_TEXT.stopped,TEST_INSTR.started,TEST_INSTR.stopped,TEST_IMG_FIX.started,TEST_IMG_LEFT.started,TEST_IMG_RIGHT.started,TEST_IMG_RESP.started,TEST_IMG_LEFT.stopped,TEST_IMG_RIGHT.stopped,TEST_IMG_RESP.stopped,TEST_IMG_FIX.stopped,TEST_IMG_RESP.keys,TEST_IMG_RESP.corr,TEST_IMGFB_FIX.started,TEST_IMGFB_FRAME.started,TEST_IMGFB_IMG_LEFT.started,TEST_IMGFB_IMG_RIGHT.started,TEST_IMGFB_FIX.stopped,TEST_IMGFB_FRAME.stopped,TEST_IMGFB_IMG_LEFT.stopped,TEST_IMGFB_IMG_RIGHT.stopped,TEST_REWARD_FRAME.started,TEST_REWARD_IMG_LEFT.started,TEST_REWARD_IMG_RIGHT.started,TEST_REWARD_TEXT.started,TEST_REWARD_FRAME.stopped,TEST_REWARD_IMG_LEFT.stopped,TEST_REWARD_IMG_RIGHT.stopped,TEST_REWARD_TEXT.stopped,participant,date,expName,psychopyVersion,frameRate,
,,,,,,,,,,,,,,,,,,,,,,,,,,,,,,,,,,,,,,,,,,,,,,,,12.899716416955926,12.899716416955926,space,1.9281840409967117,,,,,,,,,,,,,,,,,,,,,,,,,,,,,,,,,,,,,,,,,,,,,,,,,,,,,,,,,,,,,,,,,,,,,,,,,,,,,,,,,,,,,test,2023-06-27_18h56.28.464,Pattern_1,2022.2.4,None,
game1/slf11.xlsx,game1/obs11.xlsx,game1/test11.xlsx,0,1,1,2,33,38,,,,,,,,,,,,,,,,0,0,0,0,0,0,0,0,,,,,,,,,,,,,,,,,,,,,17.88702841696795,18.000881291984115,18.043031291977968,18.043031291977968,18.043031291977968,18.141262166958768,18.141262166958768,18.141262166958768,18.21684024995193,None,0,18.21684024995193,18.21684024995193,18.21684024995193,18.21684024995193,18.328179124975577,18.328179124975577,18.328179124975577,18.328179124975577,18.328179124975577,18.328179124975577,18.328179124975577,18.328179124975577,18.452983291994315,18.452983291994315,18.452983291994315,18.452983291994315,,,,,,,,,,,,,,,,,,,,,,,,,,,,,,,,,,,,,,,,,,,,,,,,,,,,,,,,,,test,2023-06-27_18h56.28.464,Pattern_1,2022.2.4,None,
game1/slf11.xlsx,game1/obs11.xlsx,game1/test11.xlsx,0,2,2,1,61,41,,,,,,,,,,,,,,,,0,0,0,0,0,1,1,1,,,,,,,,,,,,,,,,,,,,,,18.452983291994315,18.525413499970455,18.525413499970455,18.525413499970455,18.62232841696823,18.62232841696823,18.62232841696823,18.65202199999476,None,0,18.65202199999476,18.65202199999476,18.65202199999476,18.65202199999476,18.75239766697632,18.75239766697632,18.75239766697632,18.75239766697632,18.75239766697632,18.75239766697632,18.75239766697632,18.75239766697632,18.868028249999043,18.868028249999043,18.868028249999043,18.868028249999043,,,,,,,,,,,,,,,,,,,,,,,,,,,,,,,,,,,,,,,,,,,,,,,,,,,,,,,,,,test,2023-06-27_18h56.28.464,Pattern_1,2022.2.4,None,
game1/slf11.xlsx,game1/obs11.xlsx,game1/test11.xlsx,0,3,1,2,51,24,,,,,,,,,,,,,,,,0,0,0,0,0,2,2,2,,,,,,,,,,,,,,,,,,,,,,18.868028249999043,18.955814583983738,18.955814583983738,18.955814583983738,19.041914834000636,19.041914834000636,19.041914834000636,19.068410541978665,None,0,19.068410541978665,19.068410541978665,19.068410541978665,19.068410541978665,19.169213416986167,19.169213416986167,19.169213416986167,19.169213416986167,19.169213416986167,19.169213416986167,19.169213416986167,19.169213416986167,19.28555004199734,19.28555004199734,19.28555004199734,19.28555004199734,,,,,,,,,,,,,,,,,,,,,,,,,,,,,,,,,,,,,,,,,,,,,,,,,,,,,,,,,,test,2023-06-27_18h56.28.464,Pattern_1,2022.2.4,None,
game1/slf11.xlsx,game1/obs11.xlsx,game1/test11.xlsx,0,2,1,1,32,49,,,,,,,,,,,,,,,,0,0,0,0,0,3,3,3,,,,,,,,,,,,,,,,,,,,,,19.28555004199734,19.363974292005878,19.363974292005878,19.363974292005878,19.459283166972455,19.459283166972455,19.459283166972455,19.49264004197903,None,0,19.49264004197903,19.49264004197903,19.49264004197903,19.49264004197903,19.60347087495029,19.60347087495029,19.60347087495029,19.60347087495029,19.60347087495029,19.60347087495029,19.60347087495029,19.60347087495029,19.720183666970115,19.720183666970115,19.720183666970115,19.720183666970115,,,,,,,,,,,,,,,,,,,,,,,,,,,,,,,,,,,,,,,,,,,,,,,,,,,,,,,,,,test,2023-06-27_18h56.28.464,Pattern_1,2022.2.4,None,
game1/slf11.xlsx,game1/obs11.xlsx,game1/test11.xlsx,0,1,2,2,44,27,,,,,,,,,,,,,,,,0,0,0,0,0,4,4,4,,,,,,,,,,,,,,,,,,,,,,19.720183666970115,19.80558312498033,19.80558312498033,19.80558312498033,19.891637374996208,19.891637374996208,19.891637374996208,19.918728874996305,None,0,19.918728874996305,19.918728874996305,19.918728874996305,19.918728874996305,20.019371250004042,20.019371250004042,20.019371250004042,20.019371250004042,20.019371250004042,20.019371250004042,20.019371250004042,20.019371250004042,20.134680874994956,20.134680874994956,20.134680874994956,20.134680874994956,,,,,,,,,,,,,,,,,,,,,,,,,,,,,,,,,,,,,,,,,,,,,,,,,,,,,,,,,,test,2023-06-27_18h56.28.464,Pattern_1,2022.2.4,None,
game1/slf11.xlsx,game1/obs11.xlsx,game1/test11.xlsx,0,3,2,2,25,63,,,,,,,,,,,,,,,,0,0,0,0,0,5,5,5,,,,,,,,,,,,,,,,,,,,,,20.134680874994956,20.22235549998004,20.22235549998004,20.22235549998004,20.308368416968733,20.308368416968733,20.308368416968733,20.33522412495222,None,0,20.33522412495222,20.33522412495222,20.33522412495222,20.33522412495222,20.43631545896642,20.43631545896642,20.43631545896642,20.43631545896642,20.43631545896642,20.43631545896642,20.43631545896642,20.43631545896642,20.55715995898936,20.55715995898936,20.55715995898936,20.55715995898936,,,,,,,,,,,,,,,,,,,,,,,,,,,,,,,,,,,,,,,,,,,,,,,,,,,,,,,,,,test,2023-06-27_18h56.28.464,Pattern_1,2022.2.4,None,
game1/slf11.xlsx,game1/obs11.xlsx,game1/test11.xlsx,0,1,1,1,19,45,,,,,,,,,,,,,,,,0,0,0,0,0,6,6,6,,,,,,,,,,,,,,,,,,,,,,20.55715995898936,20.642543291964103,20.642543291964103,20.642543291964103,20.742875583993737,20.742875583993737,20.742875583993737,20.758894333965145,None,0,20.758894333965145,20.758894333965145,20.758894333965145,20.758894333965145,20.85865837498568,20.85865837498568,20.85865837498568,20.85865837498568,20.85865837498568,20.85865837498568,20.85865837498568,20.85865837498568,20.97551249997923,20.97551249997923,20.97551249997923,20.97551249997923,,,,,,,,,,,,,,,,,,,,,,,,,,,,,,,,,,,,,,,,,,,,,,,,,,,,,,,,,,test,2023-06-27_18h56.28.464,Pattern_1,2022.2.4,None,
game1/slf11.xlsx,game1/obs11.xlsx,game1/test11.xlsx,0,3,1,2,47,24,,,,,,,,,,,,,,,,0,0,0,0,0,7,7,7,,,,,,,,,,,,,,,,,,,,,,20.97551249997923,21.06200979196001,21.06200979196001,21.06200979196001,21.160918916983064,21.160918916983064,21.160918916983064,21.17582449998008,None,0,21.17582449998008,21.17582449998008,21.17582449998008,21.17582449998008,21.27540612500161,21.27540612500161,21.27540612500161,21.27540612500161,21.27540612500161,21.27540612500161,21.27540612500161,21.27540612500161,21.42369762499584,21.42369762499584,21.42369762499584,21.42369762499584,,,,,,,,,,,,,,,,,,,,,,,,,,,,,,,,,,,,,,,,,,,,,,,,,,,,,,,,,,test,2023-06-27_18h56.28.464,Pattern_1,2022.2.4,None,
game1/slf11.xlsx,game1/obs11.xlsx,game1/test11.xlsx,0,2,2,1,50,45,,,,,,,,,,,,,,,,0,0,0,0,0,8,8,8,,,,,,,,,,,,,,,,,,,,,,21.42369762499584,21.493714791955426,21.493714791955426,21.493714791955426,21.589534499973524,21.589534499973524,21.589534499973524,21.64056641695788,None,0,21.64056641695788,21.64056641695788,21.64056641695788,21.64056641695788,21.75059254199732,21.75059254199732,21.75059254199732,21.75059254199732,21.75059254199732,21.75059254199732,21.75059254199732,21.75059254199732,21.907516042003408,21.907516042003408,21.907516042003408,21.907516042003408,,,,,,,,,,,,,,,,,,,,,,,,,,,,,,,,,,,,,,,,,,,,,,,,,,,,,,,,,,test,2023-06-27_18h56.28.464,Pattern_1,2022.2.4,None,
game1/slf11.xlsx,game1/obs11.xlsx,game1/test11.xlsx,,,,,,,0,2,2,2,63,45,right,low,45,1.137860019088111,0.1210825353131101,,,,,0,0,0,0,,,,,,,,,0,0,0,0,,,,,,,,,,,,,,,,,,,,,,,,,,,,,,,,,,,,,,,,21.907516042003408,22.017917416989803,22.061110416951124,22.061110416951124,23.209046999982093,23.341613541997503,23.39108699996723,23.39108699996723,24.545588958950248,24.545588958950248,24.545588958950248,24.545588958950248,24.545588958950248,24.545588958950248,24.659056499949656,24.758745583996642,24.758745583996642,24.758745583996642,24.758745583996642,24.758745583996642,24.89610766695114,24.89610766695114,24.89610766695114,24.89610766695114,24.89610766695114,25.02768591698259,25.02768591698259,25.02768591698259,25.02768591698259,,,,,,,,,,,,,,,,,,,,,,,,,,,,,test,2023-06-27_18h56.28.464,Pattern_1,2022.2.4,None,
game1/slf11.xlsx,game1/obs11.xlsx,game1/test11.xlsx,,,,,,,0,3,1,1,53,15,left,low,53,1.182594212648595,1.239309994590451,,,,,0,0,0,0,,,,,,,,,0,1,1,1,,,,,,,,,,,,,,,,,,,,,,,,,,,,,,,,,,,,,,,,,25.02768591698259,25.108178499969654,25.108178499969654,26.291536499978974,26.40812704199925,26.489038458967116,26.489038458967116,27.67246149998391,27.67246149998391,27.67246149998391,27.67246149998391,27.67246149998391,27.67246149998391,28.894286583992653,29.006016874976922,29.006016874976922,29.006016874976922,29.006016874976922,29.006016874976922,30.238493416982237,30.238493416982237,30.238493416982237,30.238493416982237,30.238493416982237,30.408963416994084,30.408963416994084,30.408963416994084,30.408963416994084,,,,,,,,,,,,,,,,,,,,,,,,,,,,,test,2023-06-27_18h56.28.464,Pattern_1,2022.2.4,None,
game1/slf11.xlsx,game1/obs11.xlsx,game1/test11.xlsx,,,,,,,0,1,1,2,35,46,right,low,46,1.535435221973659,0.39881564901611,,,,,0,0,0,0,,,,,,,,,0,2,2,2,,,,,,,,,,,,,,,,,,,,,,,,,,,,,,,,,,,,,,,,,30.408963416994084,30.461591958999634,30.461591958999634,31.992109666985925,32.14169174997369,32.19139258400537,32.19139258400537,33.72815424995497,33.72815424995497,33.72815424995497,33.72815424995497,33.72815424995497,33.72815424995497,34.10887699999148,34.22448149998672,34.22448149998672,34.22448149998672,34.22448149998672,34.22448149998672,34.608419374970254,34.608419374970254,34.608419374970254,34.608419374970254,34.608419374970254,34.72898837499088,34.72898837499088,34.72898837499088,34.72898837499088,,,,,,,,,,,,,,,,,,,,,,,,,,,,,test,2023-06-27_18h56.28.464,Pattern_1,2022.2.4,None,
game1/slf11.xlsx,game1/obs11.xlsx,game1/test11.xlsx,,,,,,,0,3,2,1,23,46,left,low,23,0.7336790982121868,0.2231343744844985,,,,,0,0,0,0,,,,,,,,,0,3,3,3,,,,,,,,,,,,,,,,,,,,,,,,,,,,,,,,,,,,,,,,,34.72898837499088,34.80870091699762,34.80870091699762,35.544120666978415,35.66107708396157,35.73927545896731,35.73927545896731,36.479818833991885,36.479818833991885,36.479818833991885,36.479818833991885,36.479818833991885,36.479818833991885,36.692774791968986,36.79143787495559,36.79143787495559,36.79143787495559,36.79143787495559,36.79143787495559,37.02132120897295,37.02132120897295,37.02132120897295,37.02132120897295,37.02132120897295,37.15473274997203,37.15473274997203,37.15473274997203,37.15473274997203,,,,,,,,,,,,,,,,,,,,,,,,,,,,,test,2023-06-27_18h56.28.464,Pattern_1,2022.2.4,None,
game1/slf11.xlsx,game1/obs11.xlsx,game1/test11.xlsx,,,,,,,0,1,2,1,45,20,right,low,20,1.48414291351069,1.169699929432276,,,,,0,0,0,0,,,,,,,,,0,4,4,4,,,,,,,,,,,,,,,,,,,,,,,,,,,,,,,,,,,,,,,,,37.15473274997203,37.225539041974116,37.225539041974116,38.710155624954496,38.82801154197659,38.905913750000764,38.905913750000764,40.39264437498059,40.39264437498059,40.39264437498059,40.39264437498059,40.39264437498059,40.39264437498059,41.545871958951466,41.6559904589667,41.6559904589667,41.6559904589667,41.6559904589667,41.6559904589667,42.82124420895707,42.82124420895707,42.82124420895707,42.82124420895707,42.82124420895707,42.95008858398069,42.95008858398069,42.95008858398069,42.95008858398069,,,,,,,,,,,,,,,,,,,,,,,,,,,,,test,2023-06-27_18h56.28.464,Pattern_1,2022.2.4,None,
game1/slf11.xlsx,game1/obs11.xlsx,game1/test11.xlsx,,,,,,,0,2,1,2,43,53,right,low,53,0.9448328625272091,0.4718925370411068,,,,,0,0,0,0,,,,,,,,,0,5,5,5,,,,,,,,,,,,,,,,,,,,,,,,,,,,,,,,,,,,,,,,,42.95008858398069,43.02565487497486,43.02565487497486,43.97535237495322,44.09189354197588,44.15783325000666,44.15783325000666,45.10976474999916,45.10976474999916,45.10976474999916,45.10976474999916,45.10976474999916,45.10976474999916,45.57631566695636,45.674624749983195,45.674624749983195,45.674624749983195,45.674624749983195,45.674624749983195,46.15707787498832,46.15707787498832,46.15707787498832,46.15707787498832,46.15707787498832,46.283655749983154,46.283655749983154,46.283655749983154,46.283655749983154,,,,,,,,,,,,,,,,,,,,,,,,,,,,,test,2023-06-27_18h56.28.464,Pattern_1,2022.2.4,None,
game1/slf11.xlsx,game1/obs11.xlsx,game1/test11.xlsx,,,,,,,0,3,1,1,48,45,left,high,48,0.8836401145992754,0.6923702641804376,,,,,0,0,0,0,,,,,,,,,0,6,6,6,,,,,,,,,,,,,,,,,,,,,,,,,,,,,,,,,,,,,,,,,46.283655749983154,46.35944412497338,46.35944412497338,47.24229062499944,47.358697541989386,47.44168404198717,47.44168404198717,48.32231958396733,48.32231958396733,48.32231958396733,48.32231958396733,48.32231958396733,48.32231958396733,48.99258562497562,49.1079967499827,49.1079967499827,49.1079967499827,49.1079967499827,49.1079967499827,49.787550541979726,49.787550541979726,49.787550541979726,49.787550541979726,49.787550541979726,49.92141008400358,49.92141008400358,49.92141008400358,49.92141008400358,,,,,,,,,,,,,,,,,,,,,,,,,,,,,test,2023-06-27_18h56.28.464,Pattern_1,2022.2.4,None,
game1/slf11.xlsx,game1/obs11.xlsx,game1/test11.xlsx,,,,,,,0,2,2,1,59,38,right,low,38,1.222356837029504,0.220061950931031,,,,,0,0,0,0,,,,,,,,,0,7,7,7,,,,,,,,,,,,,,,,,,,,,,,,,,,,,,,,,,,,,,,,,49.92141008400358,49.99277412495576,49.99277412495576,51.22562854195712,51.34145766700385,51.407943541998975,51.407943541998975,52.64458699995885,52.64458699995885,52.64458699995885,52.64458699995885,52.64458699995885,52.64458699995885,52.859225083957426,52.9578873339924,52.9578873339924,52.9578873339924,52.9578873339924,52.9578873339924,53.18798649997916,53.18798649997916,53.18798649997916,53.18798649997916,53.18798649997916,53.31473854195792,53.31473854195792,53.31473854195792,53.31473854195792,,,,,,,,,,,,,,,,,,,,,,,,,,,,,test,2023-06-27_18h56.28.464,Pattern_1,2022.2.4,None,
game1/slf11.xlsx,game1/obs11.xlsx,game1/test11.xlsx,,,,,,,0,1,1,2,32,34,right,low,34,1.275137733155847,0.6384044732453276,,,,,0,0,0,0,,,,,,,,,0,8,8,8,,,,,,,,,,,,,,,,,,,,,,,,,,,,,,,,,,,,,,,,,53.31473854195792,53.39207816700218,53.39207816700218,54.67230112495599,54.7750665419735,54.85801454196917,54.85801454196917,56.144239708955865,56.144239708955865,56.144239708955865,56.144239708955865,56.144239708955865,56.144239708955865,56.776020083983894,56.87463154195575,56.87463154195575,56.87463154195575,56.87463154195575,56.87463154195575,57.52110112499213,57.52110112499213,57.52110112499213,57.52110112499213,57.52110112499213,57.65776466700481,57.65776466700481,57.65776466700481,57.65776466700481,,,,,,,,,,,,,,,,,,,,,,,,,,,,,test,2023-06-27_18h56.28.464,Pattern_1,2022.2.4,None,
game1/slf11.xlsx,game1/obs11.xlsx,game1/test11.xlsx,,,,,,,,,,,,,,,,,,3,3,1,1,0,0,0,0,,,,,,,,,,,,,0,0,0,0,,,,,,,,,,,,,,,,,,,,,,,,,,,,,,,,,,,,,,,,,,,,,,,,,,,,,,,,,,,,,,,,,57.65776466700481,57.771206541976426,57.771206541976426,57.824971208989155,57.824971208989155,57.824971208989155,57.92242095898837,57.92242095898837,57.92242095898837,57.97221787495073,None,0,57.97221787495073,57.97221787495073,57.97221787495073,57.97221787495073,58.07796908396995,58.07796908396995,58.07796908396995,58.07796908396995,58.07796908396995,58.07796908396995,58.07796908396995,58.07796908396995,58.24040408397559,58.24040408397559,58.24040408397559,58.24040408397559,test,2023-06-27_18h56.28.464,Pattern_1,2022.2.4,None,
game1/slf11.xlsx,game1/obs11.xlsx,game1/test11.xlsx,,,,,,,,,,,,,,,,,,1,1,2,1,0,0,0,0,,,,,,,,,,,,,0,1,1,1,,,,,,,,,,,,,,,,,,,,,,,,,,,,,,,,,,,,,,,,,,,,,,,,,,,,,,,,,,,,,,,,,,,58.24040408397559,58.30832924996503,58.30832924996503,58.30832924996503,58.405744374962524,58.405744374962524,58.405744374962524,58.44221195898717,None,0,58.44221195898717,58.44221195898717,58.44221195898717,58.44221195898717,58.54168537497753,58.54168537497753,58.54168537497753,58.54168537497753,58.54168537497753,58.54168537497753,58.54168537497753,58.54168537497753,58.67375524999807,58.67375524999807,58.67375524999807,58.67375524999807,test,2023-06-27_18h56.28.464,Pattern_1,2022.2.4,None,
game1/slf11.xlsx,game1/obs11.xlsx,game1/test11.xlsx,,,,,,,,,,,,,,,,,,4,5,0,1,0,0,0,0,,,,,,,,,,,,,0,2,2,2,,,,,,,,,,,,,,,,,,,,,,,,,,,,,,,,,,,,,,,,,,,,,,,,,,,,,,,,,,,,,,,,,,,58.67375524999807,58.75571354199201,58.75571354199201,58.75571354199201,58.84168758400483,58.84168758400483,58.84168758400483,58.875386583968066,None,0,58.875386583968066,58.875386583968066,58.875386583968066,58.875386583968066,58.97698258399032,58.97698258399032,58.97698258399032,58.97698258399032,58.97698258399032,58.97698258399032,58.97698258399032,58.97698258399032,59.12529404199449,59.12529404199449,59.12529404199449,59.12529404199449,test,2023-06-27_18h56.28.464,Pattern_1,2022.2.4,None,
game1/slf11.xlsx,game1/obs11.xlsx,game1/test11.xlsx,,,,,,,,,,,,,,,,,,2,2,1,1,0,0,0,0,,,,,,,,,,,,,0,3,3,3,,,,,,,,,,,,,,,,,,,,,,,,,,,,,,,,,,,,,,,,,,,,,,,,,,,,,,,,,,,,,,,,,,,59.12529404199449,59.20572945900494,59.20572945900494,59.20572945900494,59.29104774998268,59.29104774998268,59.29104774998268,59.32513108395506,None,0,59.32513108395506,59.32513108395506,59.32513108395506,59.32513108395506,59.42592062498443,59.42592062498443,59.42592062498443,59.42592062498443,59.42592062498443,59.42592062498443,59.42592062498443,59.42592062498443,59.55398524994962,59.55398524994962,59.55398524994962,59.55398524994962,test,2023-06-27_18h56.28.464,Pattern_1,2022.2.4,None,
game1/slf11.xlsx,game1/obs11.xlsx,game1/test11.xlsx,,,,,,,,,,,,,,,,,,3,1,2,1,0,0,0,0,,,,,,,,,,,,,0,4,4,4,,,,,,,,,,,,,,,,,,,,,,,,,,,,,,,,,,,,,,,,,,,,,,,,,,,,,,,,,,,,,,,,,,,59.55398524994962,59.6390053749783,59.6390053749783,59.6390053749783,59.72454716695938,59.72454716695938,59.72454716695938,59.75292699999409,None,0,59.75292699999409,59.75292699999409,59.75292699999409,59.75292699999409,59.85572270897683,59.85572270897683,59.85572270897683,59.85572270897683,59.85572270897683,59.85572270897683,59.85572270897683,59.85572270897683,59.989256708999164,59.989256708999164,59.989256708999164,59.989256708999164,test,2023-06-27_18h56.28.464,Pattern_1,2022.2.4,None,
game1/slf11.xlsx,game1/obs11.xlsx,game1/test11.xlsx,,,,,,,,,,,,,,,,,,4,3,1,2,0,0,0,0,,,,,,,,,,,,,0,5,5,5,,,,,,,,,,,,,,,,,,,,,,,,,,,,,,,,,,,,,,,,,,,,,,,,,,,,,,,,,,,,,,,,,,,59.989256708999164,60.05879849998746,60.05879849998746,60.05879849998746,60.155670666950755,60.155670666950755,60.155670666950755,60.187683833995834,None,0,60.187683833995834,60.187683833995834,60.187683833995834,60.187683833995834,60.28759245900437,60.28759245900437,60.28759245900437,60.28759245900437,60.28759245900437,60.28759245900437,60.28759245900437,60.28759245900437,60.423659583961125,60.423659583961125,60.423659583961125,60.423659583961125,test,2023-06-27_18h56.28.464,Pattern_1,2022.2.4,None,
game1/slf11.xlsx,game1/obs11.xlsx,game1/test11.xlsx,,,,,,,,,,,,,,,,,,1,2,2,2,0,0,0,0,,,,,,,,,,,,,0,6,6,6,,,,,,,,,,,,,,,,,,,,,,,,,,,,,,,,,,,,,,,,,,,,,,,,,,,,,,,,,,,,,,,,,,,60.423659583961125,60.50567324995063,60.50567324995063,60.50567324995063,60.59181420895038,60.59181420895038,60.59181420895038,60.624988791998476,None,0,60.624988791998476,60.624988791998476,60.624988791998476,60.624988791998476,60.725380999967456,60.725380999967456,60.725380999967456,60.725380999967456,60.725380999967456,60.725380999967456,60.725380999967456,60.725380999967456,60.854963874968234,60.854963874968234,60.854963874968234,60.854963874968234,test,2023-06-27_18h56.28.464,Pattern_1,2022.2.4,None,
game1/slf11.xlsx,game1/obs11.xlsx,game1/test11.xlsx,,,,,,,,,,,,,,,,,,3,6,0,2,0,0,0,0,,,,,,,,,,,,,0,7,7,7,,,,,,,,,,,,,,,,,,,,,,,,,,,,,,,,,,,,,,,,,,,,,,,,,,,,,,,,,,,,,,,,,,,60.854963874968234,60.93906754197087,60.93906754197087,60.93906754197087,61.02489641698776,61.02489641698776,61.02489641698776,61.05298620898975,None,0,61.05298620898975,61.05298620898975,61.05298620898975,61.05298620898975,61.1555212920066,61.1555212920066,61.1555212920066,61.1555212920066,61.1555212920066,61.1555212920066,61.1555212920066,61.1555212920066,61.29161987500265,61.29161987500265,61.29161987500265,61.29161987500265,test,2023-06-27_18h56.28.464,Pattern_1,2022.2.4,None,
game1/slf11.xlsx,game1/obs11.xlsx,game1/test11.xlsx,,,,,,,,,,,,,,,,,,2,3,1,1,0,0,0,0,,,,,,,,,,,,,0,8,8,8,,,,,,,,,,,,,,,,,,,,,,,,,,,,,,,,,,,,,,,,,,,,,,,,,,,,,,,,,,,,,,,,,,,61.29161987500265,61.37477866699919,61.37477866699919,61.37477866699919,61.47230908396887,61.47230908396887,61.47230908396887,61.488865833962336,None,0,61.488865833962336,61.488865833962336,61.488865833962336,61.488865833962336,61.586242291959934,61.586242291959934,61.586242291959934,61.586242291959934,61.586242291959934,61.586242291959934,61.586242291959934,61.586242291959934,61.73093612497905,61.73093612497905,61.73093612497905,61.73093612497905,test,2023-06-27_18h56.28.464,Pattern_1,2022.2.4,None,
game1/slf11.xlsx,game1/obs11.xlsx,game1/test11.xlsx,,,,,,,,,,,,,,,,,,4,1,2,1,0,0,0,0,,,,,,,,,,,,,0,9,9,9,,,,,,,,,,,,,,,,,,,,,,,,,,,,,,,,,,,,,,,,,,,,,,,,,,,,,,,,,,,,,,,,,,,61.73093612497905,61.8081528339535,61.8081528339535,61.8081528339535,61.905709374987055,61.905709374987055,61.905709374987055,61.93787183397217,None,0,61.93787183397217,61.93787183397217,61.93787183397217,61.93787183397217,62.03823795897188,62.03823795897188,62.03823795897188,62.03823795897188,62.03823795897188,62.03823795897188,62.03823795897188,62.03823795897188,62.172543333959766,62.172543333959766,62.172543333959766,62.172543333959766,test,2023-06-27_18h56.28.464,Pattern_1,2022.2.4,None,
game1/slf11.xlsx,game1/obs11.xlsx,game1/test11.xlsx,,,,,,,,,,,,,,,,,,3,2,1,1,0,0,0,0,,,,,,,,,,,,,0,10,10,10,,,,,,,,,,,,,,,,,,,,,,,,,,,,,,,,,,,,,,,,,,,,,,,,,,,,,,,,,,,,,,,,,,,62.172543333959766,62.255661292001605,62.255661292001605,62.255661292001605,62.34165208396735,62.34165208396735,62.34165208396735,62.374309374950826,None,0,62.374309374950826,62.374309374950826,62.374309374950826,62.374309374950826,62.47504420898622,62.47504420898622,62.47504420898622,62.47504420898622,62.47504420898622,62.47504420898622,62.47504420898622,62.47504420898622,62.61423729197122,62.61423729197122,62.61423729197122,62.61423729197122,test,2023-06-27_18h56.28.464,Pattern_1,2022.2.4,None,
game1/slf11.xlsx,game1/obs11.xlsx,game1/test11.xlsx,,,,,,,,,,,,,,,,,,1,3,2,2,0,0,0,0,,,,,,,,,,,,,0,11,11,11,,,,,,,,,,,,,,,,,,,,,,,,,,,,,,,,,,,,,,,,,,,,,,,,,,,,,,,,,,,,,,,,,,,62.61423729197122,62.69290537497727,62.69290537497727,62.69290537497727,62.79139704199042,62.79139704199042,62.79139704199042,62.819498541997746,None,0,62.819498541997746,62.819498541997746,62.819498541997746,62.819498541997746,62.91992758400738,62.91992758400738,62.91992758400738,62.91992758400738,62.91992758400738,62.91992758400738,62.91992758400738,62.91992758400738,63.05865045898827,63.05865045898827,63.05865045898827,63.05865045898827,test,2023-06-27_18h56.28.464,Pattern_1,2022.2.4,None,
game1/slf11.xlsx,game1/obs11.xlsx,game1/test11.xlsx,,,,,,,,,,,,,,,,,,4,1,1,2,0,0,0,0,,,,,,,,,,,,,0,12,12,12,,,,,,,,,,,,,,,,,,,,,,,,,,,,,,,,,,,,,,,,,,,,,,,,,,,,,,,,,,,,,,,,,,,63.05865045898827,63.14142966695363,63.14142966695363,63.14142966695363,63.23905624996405,63.23905624996405,63.23905624996405,63.25552962499205,None,0,63.25552962499205,63.25552962499205,63.25552962499205,63.25552962499205,63.35400445898995,63.35400445898995,63.35400445898995,63.35400445898995,63.35400445898995,63.35400445898995,63.35400445898995,63.35400445898995,63.49586366699077,63.49586366699077,63.49586366699077,63.49586366699077,test,2023-06-27_18h56.28.464,Pattern_1,2022.2.4,None,
game1/slf11.xlsx,game1/obs11.xlsx,game1/test11.xlsx,,,,,,,,,,,,,,,,,,2,1,1,2,0,0,0,0,,,,,,,,,,,,,0,13,13,13,,,,,,,,,,,,,,,,,,,,,,,,,,,,,,,,,,,,,,,,,,,,,,,,,,,,,,,,,,,,,,,,,,,63.49586366699077,63.57477220898727,63.57477220898727,63.57477220898727,63.67229550000047,63.67229550000047,63.67229550000047,63.70386512496043,None,0,63.70386512496043,63.70386512496043,63.70386512496043,63.70386512496043,63.8048062499729,63.8048062499729,63.8048062499729,63.8048062499729,63.8048062499729,63.8048062499729,63.8048062499729,63.8048062499729,63.947043791995384,63.947043791995384,63.947043791995384,63.947043791995384,test,2023-06-27_18h56.28.464,Pattern_1,2022.2.4,None,
game1/slf11.xlsx,game1/obs11.xlsx,game1/test11.xlsx,,,,,,,,,,,,,,,,,,3,3,2,1,0,0,0,0,,,,,,,,,,,,,0,14,14,14,,,,,,,,,,,,,,,,,,,,,,,,,,,,,,,,,,,,,,,,,,,,,,,,,,,,,,,,,,,,,,,,,,,63.947043791995384,64.02471916697687,64.02471916697687,64.02471916697687,64.12232699996093,64.12232699996093,64.12232699996093,64.15380912495311,None,0,64.15380912495311,64.15380912495311,64.15380912495311,64.15380912495311,64.25491045898525,64.25491045898525,64.25491045898525,64.25491045898525,64.25491045898525,64.25491045898525,64.25491045898525,64.25491045898525,64.39566791697871,64.39566791697871,64.39566791697871,64.39566791697871,test,2023-06-27_18h56.28.464,Pattern_1,2022.2.4,None,
game1/slf11.xlsx,game1/obs11.xlsx,game1/test11.xlsx,,,,,,,,,,,,,,,,,,4,4,0,2,0,0,0,0,,,,,,,,,,,,,0,15,15,15,,,,,,,,,,,,,,,,,,,,,,,,,,,,,,,,,,,,,,,,,,,,,,,,,,,,,,,,,,,,,,,,,,,64.39566791697871,64.47476866695797,64.47476866695797,64.47476866695797,64.57232999999542,64.57232999999542,64.57232999999542,64.60253512498457,None,0,64.60253512498457,64.60253512498457,64.60253512498457,64.60253512498457,64.70355866698083,64.70355866698083,64.70355866698083,64.70355866698083,64.70355866698083,64.70355866698083,64.70355866698083,64.70355866698083,64.84868195897434,64.84868195897434,64.84868195897434,64.84868195897434,test,2023-06-27_18h56.28.464,Pattern_1,2022.2.4,None,
,,,,,,,,,,,,,,,,,,,,,,,,,,,,,,,,,,,,,,,,,,,,,,,,,,,,,,,,,,,,,,,,,,,,,,,,,,,,,,,,,,,,,,,,,,,,,,,,,,,,,,,,,,,,,,64.84868195897434,64.9251659589936,64.9251659589936,64.9251659589936,65.02239758399082,65.02239758399082,65.02239758399082,65.0537829999812,None,0,65.0537829999812,65.0537829999812,65.0537829999812,65.0537829999812,,,,,,,,,,,,,,,,,,
