slf_file,obs_file,test_file,slf_condition,slf_pair_pat,slf_order_pat,slf_reward_left,slf_reward_right,obs_condition,obs_pair_pat,obs_order_pat,obs_pos_chosen,obs_conf,obs_reward,obs_img_time,obs_conf_time,test_condition,test_pair_pat,test_order_pat,BlockLoop.thisRepN,BlockLoop.thisTrialN,BlockLoop.thisN,BlockLoop.thisIndex,SlfSequence.thisRepN,SlfSequence.thisTrialN,SlfSequence.thisN,SlfSequence.thisIndex,SlfSkip.thisRepN,SlfSkip.thisTrialN,SlfSkip.thisN,SlfSkip.thisIndex,ObsSequence.thisRepN,ObsSequence.thisTrialN,ObsSequence.thisN,ObsSequence.thisIndex,TestSequence.thisRepN,TestSequence.thisTrialN,TestSequence.thisN,TestSequence.thisIndex,TestSkip.thisRepN,TestSkip.thisTrialN,TestSkip.thisN,TestSkip.thisIndex,STANDBY_TEXT.started,STANDBY_RESP.started,STANDBY_RESP.keys,STANDBY_RESP.rt,SLF_INSTR.started,SLF_INSTR.stopped,SLF_FIX1.started,SLF_IMG_LEFT.started,SLF_IMG_RIGHT.started,SLF_IMG_RESP.started,SLF_IMG_LEFT.stopped,SLF_IMG_RIGHT.stopped,SLF_IMG_RESP.stopped,SLF_FIX1.stopped,SLF_IMG_RESP.keys,SLF_IMG_RESP.corr,SLF_FIX2.started,SLF_IMGFB_FRAME.started,SLF_IMGFB_IMG_LEFT.started,SLF_IMGFB_IMG_RIGHT.started,SLF_FIX2.stopped,SLF_IMGFB_FRAME.stopped,SLF_IMGFB_IMG_LEFT.stopped,SLF_IMGFB_IMG_RIGHT.stopped,SLF_REWARD_FRAME.started,SLF_REWARD_IMG_LEFT.started,SLF_REWARD_IMG_RIGHT.started,SLF_REWARD_TEXT.started,SLF_REWARD_FRAME.stopped,SLF_REWARD_IMG_LEFT.stopped,SLF_REWARD_IMG_RIGHT.stopped,SLF_REWARD_TEXT.stopped,OBS_INSTR.started,OBS_FIX.started,OBS_IMG_LEFT.started,OBS_IMG_RIGHT.started,OBS_IMGFB_FRAME.started,OBS_IMGFB_FRAME.stopped,OBS_IMG_LEFT.stopped,OBS_IMG_RIGHT.stopped,OBS_FIX.stopped,OBS_CONF_LOW_BOX.started,OBS_CONF_LOW_TEXT.started,OBS_CONF_HIGH_BOX.started,OBS_CONF_HIGH_TEXT.started,OBS_CONFFB_FRAME.started,OBS_CONFFB_FRAME.stopped,OBS_CONF_LOW_BOX.stopped,OBS_CONF_LOW_TEXT.stopped,OBS_CONF_HIGH_BOX.stopped,OBS_CONF_HIGH_TEXT.stopped,OBS_REWARD_FRAME.started,OBS_REWARD_IMG_LEFT.started,OBS_REWARD_IMG_RIGHT.started,OBS_REWARD_TEXT.started,OBS_REWARD_FRAME.stopped,OBS_REWARD_IMG_LEFT.stopped,OBS_REWARD_IMG_RIGHT.stopped,OBS_REWARD_TEXT.stopped,TEST_INSTR.started,TEST_FIX1.started,TEST_IMG_LEFT.started,TEST_IMG_RIGHT.started,TEST_IMG_RESP.started,TEST_IMG_LEFT.stopped,TEST_IMG_RIGHT.stopped,TEST_IMG_RESP.stopped,TEST_FIX1.stopped,TEST_IMG_RESP.keys,TEST_IMG_RESP.corr,TEST_FIX2.started,TEST_IMGFB_FRAME.started,TEST_IMGFB_IMG_LEFT.started,TEST_IMGFB_IMG_RIGHT.started,TEST_FIX2.stopped,TEST_IMGFB_FRAME.stopped,TEST_IMGFB_IMG_LEFT.stopped,TEST_IMGFB_IMG_RIGHT.stopped,TEST_REWARD_FRAME.started,TEST_REWARD_IMG_LEFT.started,TEST_REWARD_IMG_RIGHT.started,TEST_REWARD_TEXT.started,TEST_REWARD_FRAME.stopped,TEST_REWARD_IMG_LEFT.stopped,TEST_REWARD_IMG_RIGHT.stopped,TEST_REWARD_TEXT.stopped,BLOCK_REST_TEXT.started,BLOCK_REST_SKIP.started,BLOCK_REST_SKIP.keys,BLOCK_REST_SKIP.rt,participant,date,expName,psychopyVersion,frameRate,
,,,,,,,,,,,,,,,,,,,,,,,,,,,,,,,,,,,,,,,,,,,12.463210667017847,12.463210667017847,space,9.489338248968124,,,,,,,,,,,,,,,,,,,,,,,,,,,,,,,,,,,,,,,,,,,,,,,,,,,,,,,,,,,,,,,,,,,,,,,,,,,,,,,,,,,,,,,test,2023-06-23_20h00.06.542,Pattern_1,2022.2.4,None,
slf11.xlsx,obs14.xlsx,test11.xlsx,0,1,1,30,40,,,,,,,,,,,,0,0,0,0,0,0,0,0,,,,,,,,,,,,,,,,,,,,,24.971596791991033,26.995032334001735,26.995032334001735,27.057380667014513,27.057380667014513,27.057380667014513,27.143233000009786,27.143233000009786,27.143233000009786,27.21177454199642,None,0,27.21177454199642,27.21177454199642,27.21177454199642,27.21177454199642,27.325551291985903,27.325551291985903,27.325551291985903,27.325551291985903,27.325551291985903,27.325551291985903,27.325551291985903,27.325551291985903,27.43785350001417,27.43785350001417,27.43785350001417,27.43785350001417,,,,,,,,,,,,,,,,,,,,,,,,,,,,,,,,,,,,,,,,,,,,,,,,,,,,,,,,,,,test,2023-06-23_20h00.06.542,Pattern_1,2022.2.4,None,
slf11.xlsx,obs14.xlsx,test11.xlsx,0,2,2,50,40,,,,,,,,,,,,0,0,0,0,0,1,1,1,,,,,,,,,,,,,,,,,,,,,,,27.43785350001417,27.51066999998875,27.51066999998875,27.51066999998875,27.607365625037346,27.607365625037346,27.607365625037346,27.636728834011592,None,0,27.636728834011592,27.636728834011592,27.636728834011592,27.636728834011592,27.736924374999944,27.736924374999944,27.736924374999944,27.736924374999944,27.736924374999944,27.736924374999944,27.736924374999944,27.736924374999944,27.85118712502299,27.85118712502299,27.85118712502299,27.85118712502299,,,,,,,,,,,,,,,,,,,,,,,,,,,,,,,,,,,,,,,,,,,,,,,,,,,,,,,,,,,test,2023-06-23_20h00.06.542,Pattern_1,2022.2.4,None,
slf11.xlsx,obs14.xlsx,test11.xlsx,0,3,1,50,30,,,,,,,,,,,,0,0,0,0,0,2,2,2,,,,,,,,,,,,,,,,,,,,,,,27.85118712502299,27.927148209011648,27.927148209011648,27.927148209011648,28.0240555840428,28.0240555840428,28.0240555840428,28.05301012500422,None,0,28.05301012500422,28.05301012500422,28.05301012500422,28.05301012500422,28.153580959013198,28.153580959013198,28.153580959013198,28.153580959013198,28.153580959013198,28.153580959013198,28.153580959013198,28.153580959013198,28.268174084019847,28.268174084019847,28.268174084019847,28.268174084019847,,,,,,,,,,,,,,,,,,,,,,,,,,,,,,,,,,,,,,,,,,,,,,,,,,,,,,,,,,,test,2023-06-23_20h00.06.542,Pattern_1,2022.2.4,None,
slf11.xlsx,obs14.xlsx,test11.xlsx,0,2,1,40,50,,,,,,,,,,,,0,0,0,0,0,3,3,3,,,,,,,,,,,,,,,,,,,,,,,28.268174084019847,28.343126874999143,28.343126874999143,28.343126874999143,28.4407075420022,28.4407075420022,28.4407075420022,28.469690083991736,None,0,28.469690083991736,28.469690083991736,28.469690083991736,28.469690083991736,28.57010579202324,28.57010579202324,28.57010579202324,28.57010579202324,28.57010579202324,28.57010579202324,28.57010579202324,28.57010579202324,28.687072709028143,28.687072709028143,28.687072709028143,28.687072709028143,,,,,,,,,,,,,,,,,,,,,,,,,,,,,,,,,,,,,,,,,,,,,,,,,,,,,,,,,,,test,2023-06-23_20h00.06.542,Pattern_1,2022.2.4,None,
slf11.xlsx,obs14.xlsx,test11.xlsx,0,1,2,40,30,,,,,,,,,,,,0,0,0,0,0,4,4,4,,,,,,,,,,,,,,,,,,,,,,,28.687072709028143,28.760359959036577,28.760359959036577,28.760359959036577,28.857447542017326,28.857447542017326,28.857447542017326,28.886765417002607,None,0,28.886765417002607,28.886765417002607,28.886765417002607,28.886765417002607,28.987792333995458,28.987792333995458,28.987792333995458,28.987792333995458,28.987792333995458,28.987792333995458,28.987792333995458,28.987792333995458,29.10259337502066,29.10259337502066,29.10259337502066,29.10259337502066,,,,,,,,,,,,,,,,,,,,,,,,,,,,,,,,,,,,,,,,,,,,,,,,,,,,,,,,,,,test,2023-06-23_20h00.06.542,Pattern_1,2022.2.4,None,
slf11.xlsx,obs14.xlsx,test11.xlsx,0,3,2,30,50,,,,,,,,,,,,0,0,0,0,0,5,5,5,,,,,,,,,,,,,,,,,,,,,,,29.10259337502066,29.176784542039968,29.176784542039968,29.176784542039968,29.274054209003225,29.274054209003225,29.274054209003225,29.302786124986596,None,0,29.302786124986596,29.302786124986596,29.302786124986596,29.302786124986596,29.40311091701733,29.40311091701733,29.40311091701733,29.40311091701733,29.40311091701733,29.40311091701733,29.40311091701733,29.40311091701733,29.521069167007226,29.521069167007226,29.521069167007226,29.521069167007226,,,,,,,,,,,,,,,,,,,,,,,,,,,,,,,,,,,,,,,,,,,,,,,,,,,,,,,,,,,test,2023-06-23_20h00.06.542,Pattern_1,2022.2.4,None,
slf11.xlsx,obs14.xlsx,test11.xlsx,0,1,1,30,40,,,,,,,,,,,,0,0,0,0,0,6,6,6,,,,,,,,,,,,,,,,,,,,,,,29.521069167007226,29.60728250001557,29.60728250001557,29.60728250001557,29.693499292014167,29.693499292014167,29.693499292014167,29.7207657500403,None,0,29.7207657500403,29.7207657500403,29.7207657500403,29.7207657500403,29.82062858401332,29.82062858401332,29.82062858401332,29.82062858401332,29.82062858401332,29.82062858401332,29.82062858401332,29.82062858401332,29.936688209010754,29.936688209010754,29.936688209010754,29.936688209010754,,,,,,,,,,,,,,,,,,,,,,,,,,,,,,,,,,,,,,,,,,,,,,,,,,,,,,,,,,,test,2023-06-23_20h00.06.542,Pattern_1,2022.2.4,None,
slf11.xlsx,obs14.xlsx,test11.xlsx,0,3,1,50,30,,,,,,,,,,,,0,0,0,0,0,7,7,7,,,,,,,,,,,,,,,,,,,,,,,29.936688209010754,30.0239823749871,30.0239823749871,30.0239823749871,30.10975254199002,30.10975254199002,30.10975254199002,30.13642591703683,None,0,30.13642591703683,30.13642591703683,30.13642591703683,30.13642591703683,30.23704733402701,30.23704733402701,30.23704733402701,30.23704733402701,30.23704733402701,30.23704733402701,30.23704733402701,30.23704733402701,30.354448250029236,30.354448250029236,30.354448250029236,30.354448250029236,,,,,,,,,,,,,,,,,,,,,,,,,,,,,,,,,,,,,,,,,,,,,,,,,,,,,,,,,,,test,2023-06-23_20h00.06.542,Pattern_1,2022.2.4,None,
slf11.xlsx,obs14.xlsx,test11.xlsx,0,2,2,50,40,,,,,,,,,,,,0,0,0,0,0,8,8,8,,,,,,,,,,,,,,,,,,,,,,,30.354448250029236,30.44064291700488,30.44064291700488,30.44064291700488,30.526607292005792,30.526607292005792,30.526607292005792,30.552889542013872,None,0,30.552889542013872,30.552889542013872,30.552889542013872,30.552889542013872,30.65329325001221,30.65329325001221,30.65329325001221,30.65329325001221,30.65329325001221,30.65329325001221,30.65329325001221,30.65329325001221,30.776646584039554,30.776646584039554,30.776646584039554,30.776646584039554,,,,,,,,,,,,,,,,,,,,,,,,,,,,,,,,,,,,,,,,,,,,,,,,,,,,,,,,,,,test,2023-06-23_20h00.06.542,Pattern_1,2022.2.4,None,
slf11.xlsx,obs14.xlsx,test11.xlsx,,,,,,0,1,1,left,low,0,0.1,0.1,,,,0,0,0,0,,,,,,,,,0,0,0,0,,,,,,,,,,,,,,,,,,,,,,,,,,,,,,,,,,,,,,,,,30.776646584039554,32.78551212500315,32.85732191702118,32.85732191702118,32.95730791700771,33.04330650001066,33.04330650001066,33.04330650001066,33.077893709007185,33.077893709007185,33.077893709007185,33.077893709007185,33.077893709007185,33.160154542012606,33.25743016699562,33.30077337502735,33.30077337502735,33.30077337502735,33.30077337502735,33.30077337502735,33.30077337502735,33.30077337502735,33.30077337502735,33.425660750013776,33.425660750013776,33.425660750013776,33.425660750013776,,,,,,,,,,,,,,,,,,,,,,,,,,,,,,,,test,2023-06-23_20h00.06.542,Pattern_1,2022.2.4,None,
slf11.xlsx,obs14.xlsx,test11.xlsx,,,,,,0,2,2,right,high,0,0.1,0.1,,,,0,0,0,0,,,,,,,,,0,1,1,1,,,,,,,,,,,,,,,,,,,,,,,,,,,,,,,,,,,,,,,,,,33.425660750013776,33.50747104198672,33.50747104198672,33.60754308401374,33.69340074999491,33.69340074999491,33.69340074999491,33.724081750027835,33.724081750027835,33.724081750027835,33.724081750027835,33.724081750027835,33.807386917003896,33.89326533401618,33.92103104200214,33.92103104200214,33.92103104200214,33.92103104200214,33.92103104200214,33.92103104200214,33.92103104200214,33.92103104200214,34.040292166988365,34.040292166988365,34.040292166988365,34.040292166988365,,,,,,,,,,,,,,,,,,,,,,,,,,,,,,,,test,2023-06-23_20h00.06.542,Pattern_1,2022.2.4,None,
slf11.xlsx,obs14.xlsx,test11.xlsx,,,,,,0,3,1,left,low,0,0.1,0.1,,,,0,0,0,0,,,,,,,,,0,2,2,2,,,,,,,,,,,,,,,,,,,,,,,,,,,,,,,,,,,,,,,,,,34.040292166988365,34.12696412502555,34.12696412502555,34.2269402089878,34.32406891701976,34.32406891701976,34.32406891701976,34.32697950000875,34.32697950000875,34.32697950000875,34.32697950000875,34.32697950000875,34.41013312502764,34.50745133403689,34.52397108403966,34.52397108403966,34.52397108403966,34.52397108403966,34.52397108403966,34.52397108403966,34.52397108403966,34.52397108403966,34.64264470903436,34.64264470903436,34.64264470903436,34.64264470903436,,,,,,,,,,,,,,,,,,,,,,,,,,,,,,,,test,2023-06-23_20h00.06.542,Pattern_1,2022.2.4,None,
slf11.xlsx,obs14.xlsx,test11.xlsx,,,,,,0,2,1,right,high,0,0.1,0.1,,,,0,0,0,0,,,,,,,,,0,3,3,3,,,,,,,,,,,,,,,,,,,,,,,,,,,,,,,,,,,,,,,,,,34.64264470903436,34.726685583998915,34.726685583998915,34.82671875000233,34.924020584032405,34.924020584032405,34.924020584032405,34.94070741703035,34.94070741703035,34.94070741703035,34.94070741703035,34.94070741703035,35.02421895903535,35.11033687501913,35.13847533403896,35.13847533403896,35.13847533403896,35.13847533403896,35.13847533403896,35.13847533403896,35.13847533403896,35.13847533403896,35.25788291700883,35.25788291700883,35.25788291700883,35.25788291700883,,,,,,,,,,,,,,,,,,,,,,,,,,,,,,,,test,2023-06-23_20h00.06.542,Pattern_1,2022.2.4,None,
slf11.xlsx,obs14.xlsx,test11.xlsx,,,,,,0,1,2,left,low,0,0.1,0.1,,,,0,0,0,0,,,,,,,,,0,4,4,4,,,,,,,,,,,,,,,,,,,,,,,,,,,,,,,,,,,,,,,,,,35.25788291700883,35.343653708987404,35.343653708987404,35.443495459039696,35.54070850001881,35.54070850001881,35.54070850001881,35.54386479203822,35.54386479203822,35.54386479203822,35.54386479203822,35.54386479203822,35.627397042000666,35.72414495900739,35.74058775004232,35.74058775004232,35.74058775004232,35.74058775004232,35.74058775004232,35.74058775004232,35.74058775004232,35.74058775004232,35.860128375003114,35.860128375003114,35.860128375003114,35.860128375003114,,,,,,,,,,,,,,,,,,,,,,,,,,,,,,,,test,2023-06-23_20h00.06.542,Pattern_1,2022.2.4,None,
slf11.xlsx,obs14.xlsx,test11.xlsx,,,,,,0,3,2,right,high,0,0.1,0.1,,,,0,0,0,0,,,,,,,,,0,5,5,5,,,,,,,,,,,,,,,,,,,,,,,,,,,,,,,,,,,,,,,,,,35.860128375003114,35.94339445902733,35.94339445902733,36.0430925420369,36.14079287502682,36.14079287502682,36.14079287502682,36.157424584031105,36.157424584031105,36.157424584031105,36.157424584031105,36.157424584031105,36.24067612498766,36.32652162498562,36.35242854204262,36.35242854204262,36.35242854204262,36.35242854204262,36.35242854204262,36.35242854204262,36.35242854204262,36.35242854204262,36.47623329202179,36.47623329202179,36.47623329202179,36.47623329202179,,,,,,,,,,,,,,,,,,,,,,,,,,,,,,,,test,2023-06-23_20h00.06.542,Pattern_1,2022.2.4,None,
slf11.xlsx,obs14.xlsx,test11.xlsx,,,,,,0,1,1,left,low,0,0.1,0.1,,,,0,0,0,0,,,,,,,,,0,6,6,6,,,,,,,,,,,,,,,,,,,,,,,,,,,,,,,,,,,,,,,,,,36.47623329202179,36.55975358403521,36.55975358403521,36.659877917030826,36.75735408399487,36.75735408399487,36.75735408399487,36.77400941698579,36.77400941698579,36.77400941698579,36.77400941698579,36.77400941698579,36.8573415420251,36.94362158403965,36.97006658400642,36.97006658400642,36.97006658400642,36.97006658400642,36.97006658400642,36.97006658400642,36.97006658400642,36.97006658400642,37.09459120902466,37.09459120902466,37.09459120902466,37.09459120902466,,,,,,,,,,,,,,,,,,,,,,,,,,,,,,,,test,2023-06-23_20h00.06.542,Pattern_1,2022.2.4,None,
slf11.xlsx,obs14.xlsx,test11.xlsx,,,,,,0,3,1,right,high,0,0.1,0.1,,,,0,0,0,0,,,,,,,,,0,7,7,7,,,,,,,,,,,,,,,,,,,,,,,,,,,,,,,,,,,,,,,,,,37.09459120902466,37.17722750001121,37.17722750001121,37.276478125015274,37.37398775003385,37.37398775003385,37.37398775003385,37.3936189590022,37.3936189590022,37.3936189590022,37.3936189590022,37.3936189590022,37.47677787503926,37.574189834005665,37.59061462501995,37.59061462501995,37.59061462501995,37.59061462501995,37.59061462501995,37.59061462501995,37.59061462501995,37.59061462501995,37.71102095901733,37.71102095901733,37.71102095901733,37.71102095901733,,,,,,,,,,,,,,,,,,,,,,,,,,,,,,,,test,2023-06-23_20h00.06.542,Pattern_1,2022.2.4,None,
slf11.xlsx,obs14.xlsx,test11.xlsx,,,,,,0,2,2,left,low,0,0.1,0.1,,,,0,0,0,0,,,,,,,,,0,8,8,8,,,,,,,,,,,,,,,,,,,,,,,,,,,,,,,,,,,,,,,,,,37.71102095901733,37.793082499993034,37.793082499993034,37.89341916702688,37.99070533399936,37.99070533399936,37.99070533399936,38.01028774998849,38.01028774998849,38.01028774998849,38.01028774998849,38.01028774998849,38.093498250003904,38.19074766698759,38.22410883399425,38.22410883399425,38.22410883399425,38.22410883399425,38.22410883399425,38.22410883399425,38.22410883399425,38.22410883399425,38.35122075001709,38.35122075001709,38.35122075001709,38.35122075001709,,,,,,,,,,,,,,,,,,,,,,,,,,,,,,,,test,2023-06-23_20h00.06.542,Pattern_1,2022.2.4,None,
slf11.xlsx,obs14.xlsx,test11.xlsx,,,,,,,,,,,,,,1,1,1,0,0,0,0,,,,,,,,,,,,,0,0,0,0,,,,,,,,,,,,,,,,,,,,,,,,,,,,,,,,,,,,,,,,,,,,,,,,,,,,,,,,,,,,,,,,38.35122075001709,40.36695583403343,40.42657516698819,40.42657516698819,40.42657516698819,40.52403783402406,40.52403783402406,40.52403783402406,40.57277591701131,None,0,40.57277591701131,40.57277591701131,40.57277591701131,40.57277591701131,40.67416245903587,40.67416245903587,40.67416245903587,40.67416245903587,40.67416245903587,40.67416245903587,40.67416245903587,40.67416245903587,40.79640570899937,40.79640570899937,40.79640570899937,40.79640570899937,,,,,test,2023-06-23_20h00.06.542,Pattern_1,2022.2.4,None,
slf11.xlsx,obs14.xlsx,test11.xlsx,,,,,,,,,,,,,,1,1,2,0,0,0,0,,,,,,,,,,,,,0,1,1,1,,,,,,,,,,,,,,,,,,,,,,,,,,,,,,,,,,,,,,,,,,,,,,,,,,,,,,,,,,,,,,,,,40.79640570899937,40.87676912499592,40.87676912499592,40.87676912499592,40.97420779202366,40.97420779202366,40.97420779202366,41.00452283403138,None,0,41.00452283403138,41.00452283403138,41.00452283403138,41.00452283403138,41.10406199999852,41.10406199999852,41.10406199999852,41.10406199999852,41.10406199999852,41.10406199999852,41.10406199999852,41.10406199999852,41.31849366700044,41.31849366700044,41.31849366700044,41.31849366700044,,,,,test,2023-06-23_20h00.06.542,Pattern_1,2022.2.4,None,
slf11.xlsx,obs14.xlsx,test11.xlsx,,,,,,,,,,,,,,1,2,1,0,0,0,0,,,,,,,,,,,,,0,2,2,2,,,,,,,,,,,,,,,,,,,,,,,,,,,,,,,,,,,,,,,,,,,,,,,,,,,,,,,,,,,,,,,,,41.31849366700044,41.393447042035405,41.393447042035405,41.393447042035405,41.490792875003535,41.490792875003535,41.490792875003535,41.52050879201852,None,0,41.52050879201852,41.52050879201852,41.52050879201852,41.52050879201852,41.6200107090408,41.6200107090408,41.6200107090408,41.6200107090408,41.6200107090408,41.6200107090408,41.6200107090408,41.6200107090408,41.74627145903651,41.74627145903651,41.74627145903651,41.74627145903651,,,,,test,2023-06-23_20h00.06.542,Pattern_1,2022.2.4,None,
slf11.xlsx,obs14.xlsx,test11.xlsx,,,,,,,,,,,,,,1,2,2,0,0,0,0,,,,,,,,,,,,,0,3,3,3,,,,,,,,,,,,,,,,,,,,,,,,,,,,,,,,,,,,,,,,,,,,,,,,,,,,,,,,,,,,,,,,,41.74627145903651,41.82646883401321,41.82646883401321,41.82646883401321,41.92403325001942,41.92403325001942,41.92403325001942,41.953084042004775,None,0,41.953084042004775,41.953084042004775,41.953084042004775,41.953084042004775,42.05502791702747,42.05502791702747,42.05502791702747,42.05502791702747,42.05502791702747,42.05502791702747,42.05502791702747,42.05502791702747,42.186431500012986,42.186431500012986,42.186431500012986,42.186431500012986,,,,,test,2023-06-23_20h00.06.542,Pattern_1,2022.2.4,None,
slf11.xlsx,obs14.xlsx,test11.xlsx,,,,,,,,,,,,,,1,3,1,0,0,0,0,,,,,,,,,,,,,0,4,4,4,,,,,,,,,,,,,,,,,,,,,,,,,,,,,,,,,,,,,,,,,,,,,,,,,,,,,,,,,,,,,,,,,42.186431500012986,42.26595087500755,42.26595087500755,42.26595087500755,42.36099333403399,42.36099333403399,42.36099333403399,42.3964657500037,None,0,42.3964657500037,42.3964657500037,42.3964657500037,42.3964657500037,42.506656584038865,42.506656584038865,42.506656584038865,42.506656584038865,42.506656584038865,42.506656584038865,42.506656584038865,42.506656584038865,42.63666095898952,42.63666095898952,42.63666095898952,42.63666095898952,,,,,test,2023-06-23_20h00.06.542,Pattern_1,2022.2.4,None,
slf11.xlsx,obs14.xlsx,test11.xlsx,,,,,,,,,,,,,,1,3,2,0,0,0,0,,,,,,,,,,,,,0,5,5,5,,,,,,,,,,,,,,,,,,,,,,,,,,,,,,,,,,,,,,,,,,,,,,,,,,,,,,,,,,,,,,,,,42.63666095898952,42.709958749997895,42.709958749997895,42.709958749997895,42.807285999995656,42.807285999995656,42.807285999995656,42.836069167009555,None,0,42.836069167009555,42.836069167009555,42.836069167009555,42.836069167009555,42.937317292031366,42.937317292031366,42.937317292031366,42.937317292031366,42.937317292031366,42.937317292031366,42.937317292031366,42.937317292031366,43.066425334021915,43.066425334021915,43.066425334021915,43.066425334021915,,,,,test,2023-06-23_20h00.06.542,Pattern_1,2022.2.4,None,
slf11.xlsx,obs14.xlsx,test11.xlsx,,,,,,,,,,,,,,2,1,1,0,0,0,0,,,,,,,,,,,,,0,6,6,6,,,,,,,,,,,,,,,,,,,,,,,,,,,,,,,,,,,,,,,,,,,,,,,,,,,,,,,,,,,,,,,,,43.066425334021915,43.14331058401149,43.14331058401149,43.14331058401149,43.24072216701461,43.24072216701461,43.24072216701461,43.27024691703264,None,0,43.27024691703264,43.27024691703264,43.27024691703264,43.27024691703264,43.37027254200075,43.37027254200075,43.37027254200075,43.37027254200075,43.37027254200075,43.37027254200075,43.37027254200075,43.37027254200075,43.50014875002671,43.50014875002671,43.50014875002671,43.50014875002671,,,,,test,2023-06-23_20h00.06.542,Pattern_1,2022.2.4,None,
slf11.xlsx,obs14.xlsx,test11.xlsx,,,,,,,,,,,,,,2,1,2,0,0,0,0,,,,,,,,,,,,,0,7,7,7,,,,,,,,,,,,,,,,,,,,,,,,,,,,,,,,,,,,,,,,,,,,,,,,,,,,,,,,,,,,,,,,,43.50014875002671,43.57675054203719,43.57675054203719,43.57675054203719,43.67409016704187,43.67409016704187,43.67409016704187,43.70349174999865,None,0,43.70349174999865,43.70349174999865,43.70349174999865,43.70349174999865,43.80371925001964,43.80371925001964,43.80371925001964,43.80371925001964,43.80371925001964,43.80371925001964,43.80371925001964,43.80371925001964,43.93361200002255,43.93361200002255,43.93361200002255,43.93361200002255,,,,,test,2023-06-23_20h00.06.542,Pattern_1,2022.2.4,None,
slf11.xlsx,obs14.xlsx,test11.xlsx,,,,,,,,,,,,,,2,2,1,0,0,0,0,,,,,,,,,,,,,0,8,8,8,,,,,,,,,,,,,,,,,,,,,,,,,,,,,,,,,,,,,,,,,,,,,,,,,,,,,,,,,,,,,,,,,43.93361200002255,44.010002374998294,44.010002374998294,44.010002374998294,44.10733116703341,44.10733116703341,44.10733116703341,44.13826350000454,None,0,44.13826350000454,44.13826350000454,44.13826350000454,44.13826350000454,44.237937209021766,44.237937209021766,44.237937209021766,44.237937209021766,44.237937209021766,44.237937209021766,44.237937209021766,44.237937209021766,44.367093459004536,44.367093459004536,44.367093459004536,44.367093459004536,,,,,test,2023-06-23_20h00.06.542,Pattern_1,2022.2.4,None,
slf11.xlsx,obs14.xlsx,test11.xlsx,,,,,,,,,,,,,,2,2,2,0,0,0,0,,,,,,,,,,,,,0,9,9,9,,,,,,,,,,,,,,,,,,,,,,,,,,,,,,,,,,,,,,,,,,,,,,,,,,,,,,,,,,,,,,,,,44.367093459004536,44.443550541996956,44.443550541996956,44.443550541996956,44.54069179203361,44.54069179203361,44.54069179203361,44.57164629199542,None,0,44.57164629199542,44.57164629199542,44.57164629199542,44.57164629199542,44.67186016699998,44.67186016699998,44.67186016699998,44.67186016699998,44.67186016699998,44.67186016699998,44.67186016699998,44.67186016699998,44.80081283400068,44.80081283400068,44.80081283400068,44.80081283400068,,,,,test,2023-06-23_20h00.06.542,Pattern_1,2022.2.4,None,
slf11.xlsx,obs14.xlsx,test11.xlsx,,,,,,,,,,,,,,2,3,1,0,0,0,0,,,,,,,,,,,,,0,10,10,10,,,,,,,,,,,,,,,,,,,,,,,,,,,,,,,,,,,,,,,,,,,,,,,,,,,,,,,,,,,,,,,,,44.80081283400068,44.87651700002607,44.87651700002607,44.87651700002607,44.97416854201583,44.97416854201583,44.97416854201583,45.00391370902071,None,0,45.00391370902071,45.00391370902071,45.00391370902071,45.00391370902071,45.10313850000966,45.10313850000966,45.10313850000966,45.10313850000966,45.10313850000966,45.10313850000966,45.10313850000966,45.10313850000966,45.23398279200774,45.23398279200774,45.23398279200774,45.23398279200774,,,,,test,2023-06-23_20h00.06.542,Pattern_1,2022.2.4,None,
slf11.xlsx,obs14.xlsx,test11.xlsx,,,,,,,,,,,,,,2,3,2,0,0,0,0,,,,,,,,,,,,,0,11,11,11,,,,,,,,,,,,,,,,,,,,,,,,,,,,,,,,,,,,,,,,,,,,,,,,,,,,,,,,,,,,,,,,,45.23398279200774,45.30969708401244,45.30969708401244,45.30969708401244,45.407391167012975,45.407391167012975,45.407391167012975,45.43614524998702,None,0,45.43614524998702,45.43614524998702,45.43614524998702,45.43614524998702,45.53658379201079,45.53658379201079,45.53658379201079,45.53658379201079,45.53658379201079,45.53658379201079,45.53658379201079,45.53658379201079,45.666885250015184,45.666885250015184,45.666885250015184,45.666885250015184,,,,,test,2023-06-23_20h00.06.542,Pattern_1,2022.2.4,None,
slf11.xlsx,obs14.xlsx,test11.xlsx,,,,,,,,,,,,,,3,4,0,0,0,0,0,,,,,,,,,,,,,0,12,12,12,,,,,,,,,,,,,,,,,,,,,,,,,,,,,,,,,,,,,,,,,,,,,,,,,,,,,,,,,,,,,,,,,45.666885250015184,45.74334479199024,45.74334479199024,45.74334479199024,45.84067683399189,45.84067683399189,45.84067683399189,45.86944899999071,None,0,45.86944899999071,45.86944899999071,45.86944899999071,45.86944899999071,45.96957908401964,45.96957908401964,45.96957908401964,45.96957908401964,45.96957908401964,45.96957908401964,45.96957908401964,45.96957908401964,46.1033692919882,46.1033692919882,46.1033692919882,46.1033692919882,,,,,test,2023-06-23_20h00.06.542,Pattern_1,2022.2.4,None,
slf11.xlsx,obs14.xlsx,test11.xlsx,,,,,,,,,,,,,,3,1,1,0,0,0,0,,,,,,,,,,,,,0,13,13,13,,,,,,,,,,,,,,,,,,,,,,,,,,,,,,,,,,,,,,,,,,,,,,,,,,,,,,,,,,,,,,,,,46.1033692919882,46.17654354200931,46.17654354200931,46.17654354200931,46.274044874997344,46.274044874997344,46.274044874997344,46.30458820902277,None,0,46.30458820902277,46.30458820902277,46.30458820902277,46.30458820902277,46.404633667028975,46.404633667028975,46.404633667028975,46.404633667028975,46.404633667028975,46.404633667028975,46.404633667028975,46.404633667028975,46.53611033404013,46.53611033404013,46.53611033404013,46.53611033404013,,,,,test,2023-06-23_20h00.06.542,Pattern_1,2022.2.4,None,
slf11.xlsx,obs14.xlsx,test11.xlsx,,,,,,,,,,,,,,3,3,2,0,0,0,0,,,,,,,,,,,,,0,14,14,14,,,,,,,,,,,,,,,,,,,,,,,,,,,,,,,,,,,,,,,,,,,,,,,,,,,,,,,,,,,,,,,,,46.53611033404013,46.610499042028096,46.610499042028096,46.610499042028096,46.70738895901013,46.70738895901013,46.70738895901013,46.73710462503368,None,0,46.73710462503368,46.73710462503368,46.73710462503368,46.73710462503368,46.83739987498848,46.83739987498848,46.83739987498848,46.83739987498848,46.83739987498848,46.83739987498848,46.83739987498848,46.83739987498848,46.96911612502299,46.96911612502299,46.96911612502299,46.96911612502299,,,,,test,2023-06-23_20h00.06.542,Pattern_1,2022.2.4,None,
slf11.xlsx,obs14.xlsx,test11.xlsx,,,,,,,,,,,,,,3,1,2,0,0,0,0,,,,,,,,,,,,,0,15,15,15,,,,,,,,,,,,,,,,,,,,,,,,,,,,,,,,,,,,,,,,,,,,,,,,,,,,,,,,,,,,,,,,,46.96911612502299,47.043611375032924,47.043611375032924,47.043611375032924,47.14069299999392,47.14069299999392,47.14069299999392,47.16934491699794,None,0,47.16934491699794,47.16934491699794,47.16934491699794,47.16934491699794,47.269509083998855,47.269509083998855,47.269509083998855,47.269509083998855,47.269509083998855,47.269509083998855,47.269509083998855,47.269509083998855,47.40435687499121,47.40435687499121,47.40435687499121,47.40435687499121,,,,,test,2023-06-23_20h00.06.542,Pattern_1,2022.2.4,None,
slf11.xlsx,obs14.xlsx,test11.xlsx,,,,,,,,,,,,,,3,5,0,0,0,0,0,,,,,,,,,,,,,0,16,16,16,,,,,,,,,,,,,,,,,,,,,,,,,,,,,,,,,,,,,,,,,,,,,,,,,,,,,,,,,,,,,,,,,47.40435687499121,47.47763970901724,47.47763970901724,47.47763970901724,47.574206041987054,47.574206041987054,47.574206041987054,47.60581129201455,None,0,47.60581129201455,47.60581129201455,47.60581129201455,47.60581129201455,47.705581167014316,47.705581167014316,47.705581167014316,47.705581167014316,47.705581167014316,47.705581167014316,47.705581167014316,47.705581167014316,47.84363304200815,47.84363304200815,47.84363304200815,47.84363304200815,,,,,test,2023-06-23_20h00.06.542,Pattern_1,2022.2.4,None,
slf11.xlsx,obs14.xlsx,test11.xlsx,,,,,,,,,,,,,,3,2,1,0,0,0,0,,,,,,,,,,,,,0,17,17,17,,,,,,,,,,,,,,,,,,,,,,,,,,,,,,,,,,,,,,,,,,,,,,,,,,,,,,,,,,,,,,,,,47.84363304200815,47.92440716701094,47.92440716701094,47.92440716701094,48.01057083404157,48.01057083404157,48.01057083404157,48.0532200000016,None,0,48.0532200000016,48.0532200000016,48.0532200000016,48.0532200000016,48.17250162502751,48.17250162502751,48.17250162502751,48.17250162502751,48.17250162502751,48.17250162502751,48.17250162502751,48.17250162502751,48.36813295900356,48.36813295900356,48.36813295900356,48.36813295900356,,,,,test,2023-06-23_20h00.06.542,Pattern_1,2022.2.4,None,
slf11.xlsx,obs14.xlsx,test11.xlsx,,,,,,,,,,,,,,3,3,1,0,0,0,0,,,,,,,,,,,,,0,18,18,18,,,,,,,,,,,,,,,,,,,,,,,,,,,,,,,,,,,,,,,,,,,,,,,,,,,,,,,,,,,,,,,,,48.36813295900356,48.44394658401143,48.44394658401143,48.44394658401143,48.540709875000175,48.540709875000175,48.540709875000175,48.568784667004365,None,0,48.568784667004365,48.568784667004365,48.568784667004365,48.568784667004365,48.66892770898994,48.66892770898994,48.66892770898994,48.66892770898994,48.66892770898994,48.66892770898994,48.66892770898994,48.66892770898994,48.8061252500047,48.8061252500047,48.8061252500047,48.8061252500047,,,,,test,2023-06-23_20h00.06.542,Pattern_1,2022.2.4,None,
slf11.xlsx,obs14.xlsx,test11.xlsx,,,,,,,,,,,,,,3,2,2,0,0,0,0,,,,,,,,,,,,,0,19,19,19,,,,,,,,,,,,,,,,,,,,,,,,,,,,,,,,,,,,,,,,,,,,,,,,,,,,,,,,,,,,,,,,,48.8061252500047,48.89058812503936,48.89058812503936,48.89058812503936,48.97707916703075,48.97707916703075,48.97707916703075,49.003632292035036,None,0,49.003632292035036,49.003632292035036,49.003632292035036,49.003632292035036,49.10397966700839,49.10397966700839,49.10397966700839,49.10397966700839,49.10397966700839,49.10397966700839,49.10397966700839,49.10397966700839,49.23934762499994,49.23934762499994,49.23934762499994,49.23934762499994,,,,,test,2023-06-23_20h00.06.542,Pattern_1,2022.2.4,None,
slf11.xlsx,obs14.xlsx,test11.xlsx,,,,,,,,,,,,,,3,6,0,0,0,0,0,,,,,,,,,,,,,0,20,20,20,,,,,,,,,,,,,,,,,,,,,,,,,,,,,,,,,,,,,,,,,,,,,,,,,,,,,,,,,,,,,,,,,49.23934762499994,49.326763042015955,49.326763042015955,49.326763042015955,49.42403083399404,49.42403083399404,49.42403083399404,49.43682945903856,None,0,49.43682945903856,49.43682945903856,49.43682945903856,49.43682945903856,49.537604167009704,49.537604167009704,49.537604167009704,49.537604167009704,49.537604167009704,49.537604167009704,49.537604167009704,49.537604167009704,49.68595449998975,49.68595449998975,49.68595449998975,49.68595449998975,,,,,test,2023-06-23_20h00.06.542,Pattern_1,2022.2.4,None,
slf11.xlsx,obs14.xlsx,test11.xlsx,,,,,,,,,,,,,,4,4,0,0,0,0,0,,,,,,,,,,,,,0,21,21,21,,,,,,,,,,,,,,,,,,,,,,,,,,,,,,,,,,,,,,,,,,,,,,,,,,,,,,,,,,,,,,,,,49.68595449998975,49.774290167028084,49.774290167028084,49.774290167028084,49.85986987501383,49.85986987501383,49.85986987501383,49.88653845898807,None,0,49.88653845898807,49.88653845898807,49.88653845898807,49.88653845898807,49.98619541700464,49.98619541700464,49.98619541700464,49.98619541700464,49.98619541700464,49.98619541700464,49.98619541700464,49.98619541700464,50.12322204199154,50.12322204199154,50.12322204199154,50.12322204199154,,,,,test,2023-06-23_20h00.06.542,Pattern_1,2022.2.4,None,
slf11.xlsx,obs14.xlsx,test11.xlsx,,,,,,,,,,,,,,4,1,1,0,0,0,0,,,,,,,,,,,,,0,22,22,22,,,,,,,,,,,,,,,,,,,,,,,,,,,,,,,,,,,,,,,,,,,,,,,,,,,,,,,,,,,,,,,,,50.12322204199154,50.20988983399002,50.20988983399002,50.20988983399002,50.30737737502204,50.30737737502204,50.30737737502204,50.31926162500167,None,0,50.31926162500167,50.31926162500167,50.31926162500167,50.31926162500167,50.41973204200622,50.41973204200622,50.41973204200622,50.41973204200622,50.41973204200622,50.41973204200622,50.41973204200622,50.41973204200622,50.55655124998884,50.55655124998884,50.55655124998884,50.55655124998884,,,,,test,2023-06-23_20h00.06.542,Pattern_1,2022.2.4,None,
slf11.xlsx,obs14.xlsx,test11.xlsx,,,,,,,,,,,,,,4,3,2,0,0,0,0,,,,,,,,,,,,,0,23,23,23,,,,,,,,,,,,,,,,,,,,,,,,,,,,,,,,,,,,,,,,,,,,,,,,,,,,,,,,,,,,,,,,,50.55655124998884,50.643164375040215,50.643164375040215,50.643164375040215,50.740724792005494,50.740724792005494,50.740724792005494,50.75202937499853,None,0,50.75202937499853,50.75202937499853,50.75202937499853,50.75202937499853,50.85210616700351,50.85210616700351,50.85210616700351,50.85210616700351,50.85210616700351,50.85210616700351,50.85210616700351,50.85210616700351,50.99306524998974,50.99306524998974,50.99306524998974,50.99306524998974,,,,,test,2023-06-23_20h00.06.542,Pattern_1,2022.2.4,None,
slf11.xlsx,obs14.xlsx,test11.xlsx,,,,,,,,,,,,,,4,1,2,0,0,0,0,,,,,,,,,,,,,0,24,24,24,,,,,,,,,,,,,,,,,,,,,,,,,,,,,,,,,,,,,,,,,,,,,,,,,,,,,,,,,,,,,,,,,50.99306524998974,51.076842250011396,51.076842250011396,51.076842250011396,51.174023959029,51.174023959029,51.174023959029,51.19050054199761,None,0,51.19050054199761,51.19050054199761,51.19050054199761,51.19050054199761,51.28809074999299,51.28809074999299,51.28809074999299,51.28809074999299,51.28809074999299,51.28809074999299,51.28809074999299,51.28809074999299,51.426848875009455,51.426848875009455,51.426848875009455,51.426848875009455,,,,,test,2023-06-23_20h00.06.542,Pattern_1,2022.2.4,None,
slf11.xlsx,obs14.xlsx,test11.xlsx,,,,,,,,,,,,,,4,5,0,0,0,0,0,,,,,,,,,,,,,0,25,25,25,,,,,,,,,,,,,,,,,,,,,,,,,,,,,,,,,,,,,,,,,,,,,,,,,,,,,,,,,,,,,,,,,51.426848875009455,51.509730499994475,51.509730499994475,51.509730499994475,51.607383624999784,51.607383624999784,51.607383624999784,51.64086608402431,None,0,51.64086608402431,51.64086608402431,51.64086608402431,51.64086608402431,51.73814070899971,51.73814070899971,51.73814070899971,51.73814070899971,51.73814070899971,51.73814070899971,51.73814070899971,51.73814070899971,51.876000875025056,51.876000875025056,51.876000875025056,51.876000875025056,,,,,test,2023-06-23_20h00.06.542,Pattern_1,2022.2.4,None,
slf11.xlsx,obs14.xlsx,test11.xlsx,,,,,,,,,,,,,,4,2,1,0,0,0,0,,,,,,,,,,,,,0,26,26,26,,,,,,,,,,,,,,,,,,,,,,,,,,,,,,,,,,,,,,,,,,,,,,,,,,,,,,,,,,,,,,,,,51.876000875025056,51.95974712498719,51.95974712498719,51.95974712498719,52.057395667012315,52.057395667012315,52.057395667012315,52.07384595903568,None,0,52.07384595903568,52.07384595903568,52.07384595903568,52.07384595903568,52.1709999589948,52.1709999589948,52.1709999589948,52.1709999589948,52.1709999589948,52.1709999589948,52.1709999589948,52.1709999589948,52.31032366701402,52.31032366701402,52.31032366701402,52.31032366701402,,,,,test,2023-06-23_20h00.06.542,Pattern_1,2022.2.4,None,
slf11.xlsx,obs14.xlsx,test11.xlsx,,,,,,,,,,,,,,4,3,1,0,0,0,0,,,,,,,,,,,,,0,27,27,27,,,,,,,,,,,,,,,,,,,,,,,,,,,,,,,,,,,,,,,,,,,,,,,,,,,,,,,,,,,,,,,,,52.31032366701402,52.3932005839888,52.3932005839888,52.3932005839888,52.490711083984934,52.490711083984934,52.490711083984934,52.5072231250233,None,0,52.5072231250233,52.5072231250233,52.5072231250233,52.5072231250233,52.60408787499182,52.60408787499182,52.60408787499182,52.60408787499182,52.60408787499182,52.60408787499182,52.60408787499182,52.60408787499182,52.743827375001274,52.743827375001274,52.743827375001274,52.743827375001274,,,,,test,2023-06-23_20h00.06.542,Pattern_1,2022.2.4,None,
slf11.xlsx,obs14.xlsx,test11.xlsx,,,,,,,,,,,,,,4,2,2,0,0,0,0,,,,,,,,,,,,,0,28,28,28,,,,,,,,,,,,,,,,,,,,,,,,,,,,,,,,,,,,,,,,,,,,,,,,,,,,,,,,,,,,,,,,,52.743827375001274,52.826443542027846,52.826443542027846,52.826443542027846,52.92403741698945,52.92403741698945,52.92403741698945,52.94051666703308,None,0,52.94051666703308,52.94051666703308,52.94051666703308,52.94051666703308,53.037546750041656,53.037546750041656,53.037546750041656,53.037546750041656,53.037546750041656,53.037546750041656,53.037546750041656,53.037546750041656,53.25818516704021,53.25818516704021,53.25818516704021,53.25818516704021,,,,,test,2023-06-23_20h00.06.542,Pattern_1,2022.2.4,None,
slf11.xlsx,obs14.xlsx,test11.xlsx,,,,,,,,,,,,,,4,6,0,0,0,0,0,,,,,,,,,,,,,0,29,29,29,,,,,,,,,,,,,,,,,,,,,,,,,,,,,,,,,,,,,,,,,,,,,,,,,,,,,,,,,,,,,,,,,53.25818516704021,53.34329912503017,53.34329912503017,53.34329912503017,53.44069629203295,53.44069629203295,53.44069629203295,53.45320920902304,None,0,53.45320920902304,53.45320920902304,53.45320920902304,53.45320920902304,53.55322745902231,53.55322745902231,53.55322745902231,53.55322745902231,53.55322745902231,53.55322745902231,53.55322745902231,53.55322745902231,53.72373349999543,53.72373349999543,53.72373349999543,53.72373349999543,,,,,test,2023-06-23_20h00.06.542,Pattern_1,2022.2.4,None,
slf11.xlsx,obs14.xlsx,test11.xlsx,,,,,,,,,,,,,,,,,0,0,0,0,,,,,,,,,,,,,,,,,,,,,,,,,,,,,,,,,,,,,,,,,,,,,,,,,,,,,,,,,,,,,,,,,,,,,,,,,,,,,,,,,,,,,,,,,,,,,,,,,,,,,,,,,,,53.72373349999543,53.72373349999543,space,0.7875559990061447,test,2023-06-23_20h00.06.542,Pattern_1,2022.2.4,None,
slf12.xlsx,obs12.xlsx,test12.xlsx,0,2,1,40,50,,,,,,,,,,,,0,1,1,1,0,0,0,0,,,,,,,,,,,,,,,,,,,,,57.52899162500398,59.54511616699165,59.54511616699165,59.624067583994474,59.624067583994474,59.624067583994474,59.70989883400034,59.70989883400034,59.70989883400034,59.7545028339955,None,0,59.7545028339955,59.7545028339955,59.7545028339955,59.7545028339955,59.853742750012316,59.853742750012316,59.853742750012316,59.853742750012316,59.853742750012316,59.853742750012316,59.853742750012316,59.853742750012316,60.00058083399199,60.00058083399199,60.00058083399199,60.00058083399199,,,,,,,,,,,,,,,,,,,,,,,,,,,,,,,,,,,,,,,,,,,,,,,,,,,,,,,,,,,test,2023-06-23_20h00.06.542,Pattern_1,2022.2.4,None,
slf12.xlsx,obs12.xlsx,test12.xlsx,0,3,2,30,50,,,,,,,,,,,,0,1,1,1,0,1,1,1,,,,,,,,,,,,,,,,,,,,,,,60.00058083399199,60.07667725003557,60.07667725003557,60.07667725003557,60.1741710419883,60.1741710419883,60.1741710419883,60.206199625041336,None,0,60.206199625041336,60.206199625041336,60.206199625041336,60.206199625041336,60.30501920898678,60.30501920898678,60.30501920898678,60.30501920898678,60.30501920898678,60.30501920898678,60.30501920898678,60.30501920898678,60.45241950004129,60.45241950004129,60.45241950004129,60.45241950004129,,,,,,,,,,,,,,,,,,,,,,,,,,,,,,,,,,,,,,,,,,,,,,,,,,,,,,,,,,,test,2023-06-23_20h00.06.542,Pattern_1,2022.2.4,None,
slf12.xlsx,obs12.xlsx,test12.xlsx,0,1,2,40,30,,,,,,,,,,,,0,1,1,1,0,2,2,2,,,,,,,,,,,,,,,,,,,,,,,60.45241950004129,60.52639362501213,60.52639362501213,60.52639362501213,60.62393462500768,60.62393462500768,60.62393462500768,60.653623041987885,None,0,60.653623041987885,60.653623041987885,60.653623041987885,60.653623041987885,60.75396316702245,60.75396316702245,60.75396316702245,60.75396316702245,60.75396316702245,60.75396316702245,60.75396316702245,60.75396316702245,60.896713875001296,60.896713875001296,60.896713875001296,60.896713875001296,,,,,,,,,,,,,,,,,,,,,,,,,,,,,,,,,,,,,,,,,,,,,,,,,,,,,,,,,,,test,2023-06-23_20h00.06.542,Pattern_1,2022.2.4,None,
slf12.xlsx,obs12.xlsx,test12.xlsx,0,3,1,50,30,,,,,,,,,,,,0,1,1,1,0,3,3,3,,,,,,,,,,,,,,,,,,,,,,,60.896713875001296,60.97661612502998,60.97661612502998,60.97661612502998,61.07396562502254,61.07396562502254,61.07396562502254,61.10284716699971,None,0,61.10284716699971,61.10284716699971,61.10284716699971,61.10284716699971,61.20316475001164,61.20316475001164,61.20316475001164,61.20316475001164,61.20316475001164,61.20316475001164,61.20316475001164,61.20316475001164,61.350692334002815,61.350692334002815,61.350692334002815,61.350692334002815,,,,,,,,,,,,,,,,,,,,,,,,,,,,,,,,,,,,,,,,,,,,,,,,,,,,,,,,,,,test,2023-06-23_20h00.06.542,Pattern_1,2022.2.4,None,
slf12.xlsx,obs12.xlsx,test12.xlsx,0,1,1,30,40,,,,,,,,,,,,0,1,1,1,0,4,4,4,,,,,,,,,,,,,,,,,,,,,,,61.350692334002815,61.42661979200784,61.42661979200784,61.42661979200784,61.52405358402757,61.52405358402757,61.52405358402757,61.553681708988734,None,0,61.553681708988734,61.553681708988734,61.553681708988734,61.553681708988734,61.65383249998558,61.65383249998558,61.65383249998558,61.65383249998558,61.65383249998558,61.65383249998558,61.65383249998558,61.65383249998558,61.796623292029835,61.796623292029835,61.796623292029835,61.796623292029835,,,,,,,,,,,,,,,,,,,,,,,,,,,,,,,,,,,,,,,,,,,,,,,,,,,,,,,,,,,test,2023-06-23_20h00.06.542,Pattern_1,2022.2.4,None,
slf12.xlsx,obs12.xlsx,test12.xlsx,0,2,2,50,40,,,,,,,,,,,,0,1,1,1,0,5,5,5,,,,,,,,,,,,,,,,,,,,,,,61.796623292029835,61.8768232500297,61.8768232500297,61.8768232500297,61.97401041700505,61.97401041700505,61.97401041700505,62.00299458403606,None,0,62.00299458403606,62.00299458403606,62.00299458403606,62.00299458403606,62.10332516703056,62.10332516703056,62.10332516703056,62.10332516703056,62.10332516703056,62.10332516703056,62.10332516703056,62.10332516703056,62.247544042009395,62.247544042009395,62.247544042009395,62.247544042009395,,,,,,,,,,,,,,,,,,,,,,,,,,,,,,,,,,,,,,,,,,,,,,,,,,,,,,,,,,,test,2023-06-23_20h00.06.542,Pattern_1,2022.2.4,None,
slf12.xlsx,obs12.xlsx,test12.xlsx,0,3,2,30,50,,,,,,,,,,,,0,1,1,1,0,6,6,6,,,,,,,,,,,,,,,,,,,,,,,62.247544042009395,62.32665895903483,62.32665895903483,62.32665895903483,62.424054542032536,62.424054542032536,62.424054542032536,62.453590416989755,None,0,62.453590416989755,62.453590416989755,62.453590416989755,62.453590416989755,62.5532414590125,62.5532414590125,62.5532414590125,62.5532414590125,62.5532414590125,62.5532414590125,62.5532414590125,62.5532414590125,62.6984510840266,62.6984510840266,62.6984510840266,62.6984510840266,,,,,,,,,,,,,,,,,,,,,,,,,,,,,,,,,,,,,,,,,,,,,,,,,,,,,,,,,,,test,2023-06-23_20h00.06.542,Pattern_1,2022.2.4,None,
slf12.xlsx,obs12.xlsx,test12.xlsx,0,2,1,40,50,,,,,,,,,,,,0,1,1,1,0,7,7,7,,,,,,,,,,,,,,,,,,,,,,,62.6984510840266,62.77649116702378,62.77649116702378,62.77649116702378,62.87403279199498,62.87403279199498,62.87403279199498,62.90328212501481,None,0,62.90328212501481,62.90328212501481,62.90328212501481,62.90328212501481,63.003560916986316,63.003560916986316,63.003560916986316,63.003560916986316,63.003560916986316,63.003560916986316,63.003560916986316,63.003560916986316,63.14991237502545,63.14991237502545,63.14991237502545,63.14991237502545,,,,,,,,,,,,,,,,,,,,,,,,,,,,,,,,,,,,,,,,,,,,,,,,,,,,,,,,,,,test,2023-06-23_20h00.06.542,Pattern_1,2022.2.4,None,
slf12.xlsx,obs12.xlsx,test12.xlsx,0,1,2,40,30,,,,,,,,,,,,0,1,1,1,0,8,8,8,,,,,,,,,,,,,,,,,,,,,,,63.14991237502545,63.226563667005394,63.226563667005394,63.226563667005394,63.32402283401461,63.32402283401461,63.32402283401461,63.35377862502355,None,0,63.35377862502355,63.35377862502355,63.35377862502355,63.35377862502355,63.454591499990784,63.454591499990784,63.454591499990784,63.454591499990784,63.454591499990784,63.454591499990784,63.454591499990784,63.454591499990784,63.59994537499733,63.59994537499733,63.59994537499733,63.59994537499733,,,,,,,,,,,,,,,,,,,,,,,,,,,,,,,,,,,,,,,,,,,,,,,,,,,,,,,,,,,test,2023-06-23_20h00.06.542,Pattern_1,2022.2.4,None,
slf12.xlsx,obs12.xlsx,test12.xlsx,None,None,None,None,None,,,,,,,,,,,,0,1,1,1,0,9,9,9,,,,,,,,,,,,,,,,,,,,,,,63.59994537499733,63.676490125013515,63.676490125013515,63.676490125013515,63.77399579202756,63.77399579202756,63.77399579202756,63.80363737500738,None,0,63.80363737500738,63.80363737500738,63.80363737500738,63.80363737500738,63.90409429202555,63.90409429202555,63.90409429202555,63.90409429202555,63.90409429202555,63.90409429202555,63.90409429202555,63.90409429202555,64.05073837499367,64.05073837499367,64.05073837499367,64.05073837499367,,,,,,,,,,,,,,,,,,,,,,,,,,,,,,,,,,,,,,,,,,,,,,,,,,,,,,,,,,,test,2023-06-23_20h00.06.542,Pattern_1,2022.2.4,None,
slf12.xlsx,obs12.xlsx,test12.xlsx,None,None,None,None,None,,,,,,,,,,,,0,1,1,1,0,10,10,10,,,,,,,,,,,,,,,,,,,,,,,64.05073837499367,64.12661504204152,64.12661504204152,64.12661504204152,64.22401045903098,64.22401045903098,64.22401045903098,64.25363433401799,None,0,64.25363433401799,64.25363433401799,64.25363433401799,64.25363433401799,64.35386787500465,64.35386787500465,64.35386787500465,64.35386787500465,64.35386787500465,64.35386787500465,64.35386787500465,64.35386787500465,64.50151658401592,64.50151658401592,64.50151658401592,64.50151658401592,,,,,,,,,,,,,,,,,,,,,,,,,,,,,,,,,,,,,,,,,,,,,,,,,,,,,,,,,,,test,2023-06-23_20h00.06.542,Pattern_1,2022.2.4,None,
slf12.xlsx,obs12.xlsx,test12.xlsx,None,None,None,None,None,,,,,,,,,,,,0,1,1,1,0,11,11,11,,,,,,,,,,,,,,,,,,,,,,,64.50151658401592,64.57671891700011,64.57671891700011,64.57671891700011,64.67402354202932,64.67402354202932,64.67402354202932,64.70363295899006,None,0,64.70363295899006,64.70363295899006,64.70363295899006,64.70363295899006,64.80393529200228,64.80393529200228,64.80393529200228,64.80393529200228,64.80393529200228,64.80393529200228,64.80393529200228,64.80393529200228,64.97459862503456,64.97459862503456,64.97459862503456,64.97459862503456,,,,,,,,,,,,,,,,,,,,,,,,,,,,,,,,,,,,,,,,,,,,,,,,,,,,,,,,,,,test,2023-06-23_20h00.06.542,Pattern_1,2022.2.4,None,
,,,,,,,,,,,,,,,,,,,,,,,,,,,,,,,,,,,,,,,,,,,,,,,,,,,,,,,,,,,,,,,,,,,,,,,,,,,64.97459862503456,,,,,,,,,,,,,,,,,,,,,,,,,,,,,,,,,,,,,,,,,,,,,,,,,,,,,,,,,,,,,,,
