slf_file,obs_file,test_file,slf_condition,slf_pair_pat,slf_order_pat,slf_reward_left,slf_reward_right,obs_condition,obs_pair_pat,obs_order_pat,obs_pos_chosen,obs_conf,obs_reward,obs_img_time,obs_conf_time,test_condition,test_pair_pat,test_order_pat,BlockLoop.thisRepN,BlockLoop.thisTrialN,BlockLoop.thisN,BlockLoop.thisIndex,SlfSequence.thisRepN,SlfSequence.thisTrialN,SlfSequence.thisN,SlfSequence.thisIndex,SlfSkip.thisRepN,SlfSkip.thisTrialN,SlfSkip.thisN,SlfSkip.thisIndex,ObsSequence.thisRepN,ObsSequence.thisTrialN,ObsSequence.thisN,ObsSequence.thisIndex,TestSequence.thisRepN,TestSequence.thisTrialN,TestSequence.thisN,TestSequence.thisIndex,TestSkip.thisRepN,TestSkip.thisTrialN,TestSkip.thisN,TestSkip.thisIndex,STANDBY_TEXT.started,STANDBY_RESP.started,STANDBY_RESP.keys,STANDBY_RESP.rt,SLF_INSTR.started,SLF_INSTR.stopped,SLF_FIX1.started,SLF_IMG_LEFT.started,SLF_IMG_RIGHT.started,SLF_IMG_RESP.started,SLF_IMG_LEFT.stopped,SLF_IMG_RIGHT.stopped,SLF_IMG_RESP.stopped,SLF_FIX1.stopped,SLF_IMG_RESP.keys,SLF_IMG_RESP.corr,SLF_FIX2.started,SLF_IMGFB_FRAME.started,SLF_IMGFB_IMG_LEFT.started,SLF_IMGFB_IMG_RIGHT.started,SLF_FIX2.stopped,SLF_IMGFB_FRAME.stopped,SLF_IMGFB_IMG_LEFT.stopped,SLF_IMGFB_IMG_RIGHT.stopped,SLF_REWARD_FRAME.started,SLF_REWARD_IMG_LEFT.started,SLF_REWARD_IMG_RIGHT.started,SLF_REWARD_TEXT.started,SLF_REWARD_FRAME.stopped,SLF_REWARD_IMG_LEFT.stopped,SLF_REWARD_IMG_RIGHT.stopped,SLF_REWARD_TEXT.stopped,OBS_INSTR.started,OBS_FIX.started,OBS_IMG_LEFT.started,OBS_IMG_RIGHT.started,OBS_IMGFB_FRAME.started,OBS_IMGFB_FRAME.stopped,OBS_IMG_LEFT.stopped,OBS_IMG_RIGHT.stopped,OBS_FIX.stopped,OBS_CONF_LOW_BOX.started,OBS_CONF_LOW_TEXT.started,OBS_CONF_HIGH_BOX.started,OBS_CONF_HIGH_TEXT.started,OBS_CONFFB_FRAME.started,OBS_CONFFB_FRAME.stopped,OBS_CONF_LOW_BOX.stopped,OBS_CONF_LOW_TEXT.stopped,OBS_CONF_HIGH_BOX.stopped,OBS_CONF_HIGH_TEXT.stopped,OBS_REWARD_FRAME.started,OBS_REWARD_IMG_LEFT.started,OBS_REWARD_IMG_RIGHT.started,OBS_REWARD_TEXT.started,OBS_REWARD_FRAME.stopped,OBS_REWARD_IMG_LEFT.stopped,OBS_REWARD_IMG_RIGHT.stopped,OBS_REWARD_TEXT.stopped,TEST_INSTR.started,TEST_FIX1.started,TEST_IMG_LEFT.started,TEST_IMG_RIGHT.started,TEST_IMG_RESP.started,TEST_IMG_LEFT.stopped,TEST_IMG_RIGHT.stopped,TEST_IMG_RESP.stopped,TEST_FIX1.stopped,TEST_IMG_RESP.keys,TEST_IMG_RESP.corr,TEST_FIX2.started,TEST_IMGFB_FRAME.started,TEST_IMGFB_IMG_LEFT.started,TEST_IMGFB_IMG_RIGHT.started,TEST_FIX2.stopped,TEST_IMGFB_FRAME.stopped,TEST_IMGFB_IMG_LEFT.stopped,TEST_IMGFB_IMG_RIGHT.stopped,TEST_REWARD_FRAME.started,TEST_REWARD_IMG_LEFT.started,TEST_REWARD_IMG_RIGHT.started,TEST_REWARD_TEXT.started,TEST_REWARD_FRAME.stopped,TEST_REWARD_IMG_LEFT.stopped,TEST_REWARD_IMG_RIGHT.stopped,TEST_REWARD_TEXT.stopped,BLOCK_REST_TEXT.started,BLOCK_REST_SKIP.started,BLOCK_REST_SKIP.keys,BLOCK_REST_SKIP.rt,participant,date,expName,psychopyVersion,frameRate,
,,,,,,,,,,,,,,,,,,,,,,,,,,,,,,,,,,,,,,,,,,,15.07845729199471,15.07845729199471,space,0.29632279102224857,,,,,,,,,,,,,,,,,,,,,,,,,,,,,,,,,,,,,,,,,,,,,,,,,,,,,,,,,,,,,,,,,,,,,,,,,,,,,,,,,,,,,,,testl,2023-06-23_19h20.04.187,Pattern_1,2022.2.4,None,
slf11.xlsx,obs11.xlsx,test11.xlsx,0,1,1,30,40,,,,,,,,,,,,0,0,0,0,0,0,0,0,,,,,,,,,,,,,,,,,,,,,18.40883341699373,20.431609249964822,20.431609249964822,20.482340582995676,20.482340582995676,20.482340582995676,20.579015291994438,20.579015291994438,20.579015291994438,20.637491166999098,None,0,20.637491166999098,20.637491166999098,20.637491166999098,20.637491166999098,20.747588541998994,20.747588541998994,20.747588541998994,20.747588541998994,20.747588541998994,20.747588541998994,20.747588541998994,20.747588541998994,20.86059945798479,20.86059945798479,20.86059945798479,20.86059945798479,,,,,,,,,,,,,,,,,,,,,,,,,,,,,,,,,,,,,,,,,,,,,,,,,,,,,,,,,,,testl,2023-06-23_19h20.04.187,Pattern_1,2022.2.4,None,
slf11.xlsx,obs11.xlsx,test11.xlsx,0,2,2,50,40,,,,,,,,,,,,0,0,0,0,0,1,1,1,,,,,,,,,,,,,,,,,,,,,,,20.86059945798479,20.945674457994755,20.945674457994755,20.945674457994755,21.03256679198239,21.03256679198239,21.03256679198239,21.05844333296409,None,0,21.05844333296409,21.05844333296409,21.05844333296409,21.05844333296409,21.15881629200885,21.15881629200885,21.15881629200885,21.15881629200885,21.15881629200885,21.15881629200885,21.15881629200885,21.15881629200885,21.273194832960144,21.273194832960144,21.273194832960144,21.273194832960144,,,,,,,,,,,,,,,,,,,,,,,,,,,,,,,,,,,,,,,,,,,,,,,,,,,,,,,,,,,testl,2023-06-23_19h20.04.187,Pattern_1,2022.2.4,None,
slf11.xlsx,obs11.xlsx,test11.xlsx,0,3,1,50,30,,,,,,,,,,,,0,0,0,0,0,2,2,2,,,,,,,,,,,,,,,,,,,,,,,21.273194832960144,21.349540291994344,21.349540291994344,21.349540291994344,21.44570445799036,21.44570445799036,21.44570445799036,21.47494566696696,None,0,21.47494566696696,21.47494566696696,21.47494566696696,21.47494566696696,21.575093499966897,21.575093499966897,21.575093499966897,21.575093499966897,21.575093499966897,21.575093499966897,21.575093499966897,21.575093499966897,21.690757791977376,21.690757791977376,21.690757791977376,21.690757791977376,,,,,,,,,,,,,,,,,,,,,,,,,,,,,,,,,,,,,,,,,,,,,,,,,,,,,,,,,,,testl,2023-06-23_19h20.04.187,Pattern_1,2022.2.4,None,
slf11.xlsx,obs11.xlsx,test11.xlsx,0,2,1,40,50,,,,,,,,,,,,0,0,0,0,0,3,3,3,,,,,,,,,,,,,,,,,,,,,,,21.690757791977376,21.766211292007938,21.766211292007938,21.766211292007938,21.862408957968,21.862408957968,21.862408957968,21.891901041963138,None,0,21.891901041963138,21.891901041963138,21.891901041963138,21.891901041963138,21.992100916977506,21.992100916977506,21.992100916977506,21.992100916977506,21.992100916977506,21.992100916977506,21.992100916977506,21.992100916977506,22.10807949997252,22.10807949997252,22.10807949997252,22.10807949997252,,,,,,,,,,,,,,,,,,,,,,,,,,,,,,,,,,,,,,,,,,,,,,,,,,,,,,,,,,,testl,2023-06-23_19h20.04.187,Pattern_1,2022.2.4,None,
slf11.xlsx,obs11.xlsx,test11.xlsx,0,1,2,40,30,,,,,,,,,,,,0,0,0,0,0,4,4,4,,,,,,,,,,,,,,,,,,,,,,,22.10807949997252,22.18428462499287,22.18428462499287,22.18428462499287,22.282442750001792,22.282442750001792,22.282442750001792,22.310103749972768,None,0,22.310103749972768,22.310103749972768,22.310103749972768,22.310103749972768,22.4093577080057,22.4093577080057,22.4093577080057,22.4093577080057,22.4093577080057,22.4093577080057,22.4093577080057,22.4093577080057,22.524251875001937,22.524251875001937,22.524251875001937,22.524251875001937,,,,,,,,,,,,,,,,,,,,,,,,,,,,,,,,,,,,,,,,,,,,,,,,,,,,,,,,,,,testl,2023-06-23_19h20.04.187,Pattern_1,2022.2.4,None,
slf11.xlsx,obs11.xlsx,test11.xlsx,0,3,2,30,50,,,,,,,,,,,,0,0,0,0,0,5,5,5,,,,,,,,,,,,,,,,,,,,,,,22.524251875001937,22.599826791964006,22.599826791964006,22.599826791964006,22.695738082984462,22.695738082984462,22.695738082984462,22.724839707952924,None,0,22.724839707952924,22.724839707952924,22.724839707952924,22.724839707952924,22.825668249977753,22.825668249977753,22.825668249977753,22.825668249977753,22.825668249977753,22.825668249977753,22.825668249977753,22.825668249977753,22.943857457954437,22.943857457954437,22.943857457954437,22.943857457954437,,,,,,,,,,,,,,,,,,,,,,,,,,,,,,,,,,,,,,,,,,,,,,,,,,,,,,,,,,,testl,2023-06-23_19h20.04.187,Pattern_1,2022.2.4,None,
slf11.xlsx,obs11.xlsx,test11.xlsx,0,1,1,30,40,,,,,,,,,,,,0,0,0,0,0,6,6,6,,,,,,,,,,,,,,,,,,,,,,,22.943857457954437,23.029048917000182,23.029048917000182,23.029048917000182,23.116251792002004,23.116251792002004,23.116251792002004,23.142292374977842,None,0,23.142292374977842,23.142292374977842,23.142292374977842,23.142292374977842,23.24268529197434,23.24268529197434,23.24268529197434,23.24268529197434,23.24268529197434,23.24268529197434,23.24268529197434,23.24268529197434,23.35911241697613,23.35911241697613,23.35911241697613,23.35911241697613,,,,,,,,,,,,,,,,,,,,,,,,,,,,,,,,,,,,,,,,,,,,,,,,,,,,,,,,,,,testl,2023-06-23_19h20.04.187,Pattern_1,2022.2.4,None,
slf11.xlsx,obs11.xlsx,test11.xlsx,0,3,1,50,30,,,,,,,,,,,,0,0,0,0,0,7,7,7,,,,,,,,,,,,,,,,,,,,,,,23.35911241697613,23.445687707979232,23.445687707979232,23.445687707979232,23.533463625004515,23.533463625004515,23.533463625004515,23.558387583005242,None,0,23.558387583005242,23.558387583005242,23.558387583005242,23.558387583005242,23.658378332969733,23.658378332969733,23.658378332969733,23.658378332969733,23.658378332969733,23.658378332969733,23.658378332969733,23.658378332969733,23.776140332978684,23.776140332978684,23.776140332978684,23.776140332978684,,,,,,,,,,,,,,,,,,,,,,,,,,,,,,,,,,,,,,,,,,,,,,,,,,,,,,,,,,,testl,2023-06-23_19h20.04.187,Pattern_1,2022.2.4,None,
slf11.xlsx,obs11.xlsx,test11.xlsx,0,2,2,50,40,,,,,,,,,,,,0,0,0,0,0,8,8,8,,,,,,,,,,,,,,,,,,,,,,,23.776140332978684,23.862376416975167,23.862376416975167,23.862376416975167,23.949538124958053,23.949538124958053,23.949538124958053,23.97533524996834,None,0,23.97533524996834,23.97533524996834,23.97533524996834,23.97533524996834,24.07529316697037,24.07529316697037,24.07529316697037,24.07529316697037,24.07529316697037,24.07529316697037,24.07529316697037,24.07529316697037,24.201871083001606,24.201871083001606,24.201871083001606,24.201871083001606,,,,,,,,,,,,,,,,,,,,,,,,,,,,,,,,,,,,,,,,,,,,,,,,,,,,,,,,,,,testl,2023-06-23_19h20.04.187,Pattern_1,2022.2.4,None,
slf11.xlsx,obs11.xlsx,test11.xlsx,,,,,,0,1,1,left,low,0,0.5,0.5,,,,0,0,0,0,,,,,,,,,0,0,0,0,,,,,,,,,,,,,,,,,,,,,,,,,,,,,,,,,,,,,,,,,24.201871083001606,26.220921207976062,26.278981417010073,26.278981417010073,26.779111582960468,26.865770749980584,26.865770749980584,26.865770749980584,26.917709457979072,26.917709457979072,26.917709457979072,26.917709457979072,26.917709457979072,27.0011122499709,27.095685999956913,27.53132245800225,27.53132245800225,27.53132245800225,27.53132245800225,27.53132245800225,27.53132245800225,27.53132245800225,27.53132245800225,27.650888042000588,27.650888042000588,27.650888042000588,27.650888042000588,,,,,,,,,,,,,,,,,,,,,,,,,,,,,,,,testl,2023-06-23_19h20.04.187,Pattern_1,2022.2.4,None,
slf11.xlsx,obs11.xlsx,test11.xlsx,,,,,,0,2,2,right,high,0,0.5,0.5,,,,0,0,0,0,,,,,,,,,0,1,1,1,,,,,,,,,,,,,,,,,,,,,,,,,,,,,,,,,,,,,,,,,,27.650888042000588,27.73259779199725,27.73259779199725,28.232832417008467,28.329142582952045,28.329142582952045,28.329142582952045,28.349793999979738,28.349793999979738,28.349793999979738,28.349793999979738,28.349793999979738,28.432460957963485,28.529048207972664,28.951146749954205,28.951146749954205,28.951146749954205,28.951146749954205,28.951146749954205,28.951146749954205,28.951146749954205,28.951146749954205,29.07892587495735,29.07892587495735,29.07892587495735,29.07892587495735,,,,,,,,,,,,,,,,,,,,,,,,,,,,,,,,testl,2023-06-23_19h20.04.187,Pattern_1,2022.2.4,None,
slf11.xlsx,obs11.xlsx,test11.xlsx,,,,,,0,3,1,left,low,0,0.5,0.5,,,,0,0,0,0,,,,,,,,,0,2,2,2,,,,,,,,,,,,,,,,,,,,,,,,,,,,,,,,,,,,,,,,,,29.07892587495735,29.162371291953605,29.162371291953605,29.662338791997172,29.75003154197475,29.75003154197475,29.75003154197475,29.766945916984696,29.766945916984696,29.766945916984696,29.766945916984696,29.766945916984696,29.850834291952197,29.94571812497452,30.36220237496309,30.36220237496309,30.36220237496309,30.36220237496309,30.36220237496309,30.36220237496309,30.36220237496309,30.36220237496309,30.4828538330039,30.4828538330039,30.4828538330039,30.4828538330039,,,,,,,,,,,,,,,,,,,,,,,,,,,,,,,,testl,2023-06-23_19h20.04.187,Pattern_1,2022.2.4,None,
slf11.xlsx,obs11.xlsx,test11.xlsx,,,,,,0,2,1,right,high,0,0.5,0.5,,,,0,0,0,0,,,,,,,,,0,3,3,3,,,,,,,,,,,,,,,,,,,,,,,,,,,,,,,,,,,,,,,,,,30.4828538330039,30.562379999959376,30.562379999959376,31.06235379196005,31.149903291952796,31.149903291952796,31.149903291952796,31.179049792001024,31.179049792001024,31.179049792001024,31.179049792001024,31.179049792001024,31.26232037495356,31.349849791964516,31.776695124979597,31.776695124979597,31.776695124979597,31.776695124979597,31.776695124979597,31.776695124979597,31.776695124979597,31.776695124979597,31.89637666696217,31.89637666696217,31.89637666696217,31.89637666696217,,,,,,,,,,,,,,,,,,,,,,,,,,,,,,,,testl,2023-06-23_19h20.04.187,Pattern_1,2022.2.4,None,
slf11.xlsx,obs11.xlsx,test11.xlsx,,,,,,0,1,2,left,low,0,0.5,0.5,,,,0,0,0,0,,,,,,,,,0,4,4,4,,,,,,,,,,,,,,,,,,,,,,,,,,,,,,,,,,,,,,,,,,31.89637666696217,31.983074666990433,31.983074666990433,32.48287112498656,32.5790611669654,32.5790611669654,32.5790611669654,32.58304624998709,32.58304624998709,32.58304624998709,32.58304624998709,32.58304624998709,32.6656765419757,32.76239624997834,33.17893641698174,33.17893641698174,33.17893641698174,33.17893641698174,33.17893641698174,33.17893641698174,33.17893641698174,33.17893641698174,33.29701474995818,33.29701474995818,33.29701474995818,33.29701474995818,,,,,,,,,,,,,,,,,,,,,,,,,,,,,,,,testl,2023-06-23_19h20.04.187,Pattern_1,2022.2.4,None,
slf11.xlsx,obs11.xlsx,test11.xlsx,,,,,,0,3,2,right,high,0,0.5,0.5,,,,0,0,0,0,,,,,,,,,0,5,5,5,,,,,,,,,,,,,,,,,,,,,,,,,,,,,,,,,,,,,,,,,,33.29701474995818,33.38257145800162,33.38257145800162,33.88227837497834,33.9790774579742,33.9790774579742,33.9790774579742,33.99571762495907,33.99571762495907,33.99571762495907,33.99571762495907,33.99571762495907,34.079045166959986,34.165709832974244,34.59129816695349,34.59129816695349,34.59129816695349,34.59129816695349,34.59129816695349,34.59129816695349,34.59129816695349,34.59129816695349,34.71806970797479,34.71806970797479,34.71806970797479,34.71806970797479,,,,,,,,,,,,,,,,,,,,,,,,,,,,,,,,testl,2023-06-23_19h20.04.187,Pattern_1,2022.2.4,None,
slf11.xlsx,obs11.xlsx,test11.xlsx,,,,,,0,1,1,left,low,0,0.5,0.5,,,,0,0,0,0,,,,,,,,,0,6,6,6,,,,,,,,,,,,,,,,,,,,,,,,,,,,,,,,,,,,,,,,,,34.71806970797479,34.79934637498809,34.79934637498809,35.30012954195263,35.39962229196681,35.39568266697461,35.39568266697461,35.41666866699234,35.41666866699234,35.41666866699234,35.41666866699234,35.41666866699234,35.5000127920066,35.59569912496954,36.02913312497549,36.02913312497549,36.02913312497549,36.02913312497549,36.02913312497549,36.02913312497549,36.02913312497549,36.02913312497549,36.149611499975435,36.149611499975435,36.149611499975435,36.149611499975435,,,,,,,,,,,,,,,,,,,,,,,,,,,,,,,,testl,2023-06-23_19h20.04.187,Pattern_1,2022.2.4,None,
slf11.xlsx,obs11.xlsx,test11.xlsx,,,,,,0,3,1,right,high,0,0.5,0.5,,,,0,0,0,0,,,,,,,,,0,7,7,7,,,,,,,,,,,,,,,,,,,,,,,,,,,,,,,,,,,,,,,,,,36.149611499975435,36.23314899997786,36.23314899997786,36.73281999997562,36.82901958300499,36.82901958300499,36.82901958300499,36.84570837498177,36.84570837498177,36.84570837498177,36.84570837498177,36.84570837498177,36.93245837499853,37.0290044999565,37.4410894580069,37.4410894580069,37.4410894580069,37.4410894580069,37.4410894580069,37.4410894580069,37.4410894580069,37.4410894580069,37.56682570796693,37.56682570796693,37.56682570796693,37.56682570796693,,,,,,,,,,,,,,,,,,,,,,,,,,,,,,,,testl,2023-06-23_19h20.04.187,Pattern_1,2022.2.4,None,
slf11.xlsx,obs11.xlsx,test11.xlsx,,,,,,0,2,2,left,low,0,0.5,0.5,,,,0,0,0,0,,,,,,,,,0,8,8,8,,,,,,,,,,,,,,,,,,,,,,,,,,,,,,,,,,,,,,,,,,37.56682570796693,37.65004883299116,37.65004883299116,38.148972249997314,38.24570883298293,38.24570883298293,38.24570883298293,38.265861749998294,38.265861749998294,38.265861749998294,38.265861749998294,38.265861749998294,38.349278791982215,38.445700207958,38.86584024998592,38.86584024998592,38.86584024998592,38.86584024998592,38.86584024998592,38.86584024998592,38.86584024998592,38.86584024998592,38.99245866696583,38.99245866696583,38.99245866696583,38.99245866696583,,,,,,,,,,,,,,,,,,,,,,,,,,,,,,,,testl,2023-06-23_19h20.04.187,Pattern_1,2022.2.4,None,
slf11.xlsx,obs11.xlsx,test11.xlsx,,,,,,,,,,,,,,1,1,1,0,0,0,0,,,,,,,,,,,,,0,0,0,0,,,,,,,,,,,,,,,,,,,,,,,,,,,,,,,,,,,,,,,,,,,,,,,,,,,,,,,,,,,,,,,,38.99245866696583,41.005059791961685,41.06582208297914,41.06582208297914,41.06582208297914,41.1623761249939,41.1623761249939,41.1623761249939,41.211713875003625,None,0,41.211713875003625,41.211713875003625,41.211713875003625,41.211713875003625,41.31628358300077,41.31628358300077,41.31628358300077,41.31628358300077,41.31628358300077,41.31628358300077,41.31628358300077,41.31628358300077,41.537641041970346,41.537641041970346,41.537641041970346,41.537641041970346,,,,,testl,2023-06-23_19h20.04.187,Pattern_1,2022.2.4,None,
slf11.xlsx,obs11.xlsx,test11.xlsx,,,,,,,,,,,,,,1,1,2,0,0,0,0,,,,,,,,,,,,,0,1,1,1,,,,,,,,,,,,,,,,,,,,,,,,,,,,,,,,,,,,,,,,,,,,,,,,,,,,,,,,,,,,,,,,,41.537641041970346,41.617696542001795,41.617696542001795,41.617696542001795,41.7123718750081,41.7123718750081,41.7123718750081,41.74326174997259,None,0,41.74326174997259,41.74326174997259,41.74326174997259,41.74326174997259,41.84320624999236,41.84320624999236,41.84320624999236,41.84320624999236,41.84320624999236,41.84320624999236,41.84320624999236,41.84320624999236,41.96746341697872,41.96746341697872,41.96746341697872,41.96746341697872,,,,,testl,2023-06-23_19h20.04.187,Pattern_1,2022.2.4,None,
slf11.xlsx,obs11.xlsx,test11.xlsx,,,,,,,,,,,,,,1,2,1,0,0,0,0,,,,,,,,,,,,,0,2,2,2,,,,,,,,,,,,,,,,,,,,,,,,,,,,,,,,,,,,,,,,,,,,,,,,,,,,,,,,,,,,,,,,,41.96746341697872,42.05134937498951,42.05134937498951,42.05134937498951,42.15141045796918,42.15141045796918,42.15141045796918,42.16646937496262,None,0,42.16646937496262,42.16646937496262,42.16646937496262,42.16646937496262,42.26721466699382,42.26721466699382,42.26721466699382,42.26721466699382,42.26721466699382,42.26721466699382,42.26721466699382,42.26721466699382,42.38899354200112,42.38899354200112,42.38899354200112,42.38899354200112,,,,,testl,2023-06-23_19h20.04.187,Pattern_1,2022.2.4,None,
slf11.xlsx,obs11.xlsx,test11.xlsx,,,,,,,,,,,,,,1,2,2,0,0,0,0,,,,,,,,,,,,,0,3,3,3,,,,,,,,,,,,,,,,,,,,,,,,,,,,,,,,,,,,,,,,,,,,,,,,,,,,,,,,,,,,,,,,,42.38899354200112,42.46662783296779,42.46662783296779,42.46662783296779,42.56233629200142,42.56233629200142,42.56233629200142,42.59176420798758,None,0,42.59176420798758,42.59176420798758,42.59176420798758,42.59176420798758,42.69196258299053,42.69196258299053,42.69196258299053,42.69196258299053,42.69196258299053,42.69196258299053,42.69196258299053,42.69196258299053,42.8195361669641,42.8195361669641,42.8195361669641,42.8195361669641,,,,,testl,2023-06-23_19h20.04.187,Pattern_1,2022.2.4,None,
slf11.xlsx,obs11.xlsx,test11.xlsx,,,,,,,,,,,,,,1,3,1,0,0,0,0,,,,,,,,,,,,,0,4,4,4,,,,,,,,,,,,,,,,,,,,,,,,,,,,,,,,,,,,,,,,,,,,,,,,,,,,,,,,,,,,,,,,,42.8195361669641,42.90006866696058,42.90006866696058,42.90006866696058,42.99573291698471,42.99573291698471,42.99573291698471,43.02472295798361,None,0,43.02472295798361,43.02472295798361,43.02472295798361,43.02472295798361,43.12496529199416,43.12496529199416,43.12496529199416,43.12496529199416,43.12496529199416,43.12496529199416,43.12496529199416,43.12496529199416,43.25157841696637,43.25157841696637,43.25157841696637,43.25157841696637,,,,,testl,2023-06-23_19h20.04.187,Pattern_1,2022.2.4,None,
slf11.xlsx,obs11.xlsx,test11.xlsx,,,,,,,,,,,,,,1,3,2,0,0,0,0,,,,,,,,,,,,,0,5,5,5,,,,,,,,,,,,,,,,,,,,,,,,,,,,,,,,,,,,,,,,,,,,,,,,,,,,,,,,,,,,,,,,,43.25157841696637,43.33348779199878,43.33348779199878,43.33348779199878,43.42904920800356,43.42904920800356,43.42904920800356,43.45816387498053,None,0,43.45816387498053,43.45816387498053,43.45816387498053,43.45816387498053,43.558405124989804,43.558405124989804,43.558405124989804,43.558405124989804,43.558405124989804,43.558405124989804,43.558405124989804,43.558405124989804,43.68611533299554,43.68611533299554,43.68611533299554,43.68611533299554,,,,,testl,2023-06-23_19h20.04.187,Pattern_1,2022.2.4,None,
slf11.xlsx,obs11.xlsx,test11.xlsx,,,,,,,,,,,,,,2,1,1,0,0,0,0,,,,,,,,,,,,,0,6,6,6,,,,,,,,,,,,,,,,,,,,,,,,,,,,,,,,,,,,,,,,,,,,,,,,,,,,,,,,,,,,,,,,,43.68611533299554,43.76674529199954,43.76674529199954,43.76674529199954,43.86237262497889,43.86237262497889,43.86237262497889,43.89197804196738,None,0,43.89197804196738,43.89197804196738,43.89197804196738,43.89197804196738,43.99225429195212,43.99225429195212,43.99225429195212,43.99225429195212,43.99225429195212,43.99225429195212,43.99225429195212,43.99225429195212,44.120619916997384,44.120619916997384,44.120619916997384,44.120619916997384,,,,,testl,2023-06-23_19h20.04.187,Pattern_1,2022.2.4,None,
slf11.xlsx,obs11.xlsx,test11.xlsx,,,,,,,,,,,,,,2,1,2,0,0,0,0,,,,,,,,,,,,,0,7,7,7,,,,,,,,,,,,,,,,,,,,,,,,,,,,,,,,,,,,,,,,,,,,,,,,,,,,,,,,,,,,,,,,,44.120619916997384,44.19908037496498,44.19908037496498,44.19908037496498,44.295700249960646,44.295700249960646,44.295700249960646,44.32526616699761,None,0,44.32526616699761,44.32526616699761,44.32526616699761,44.32526616699761,44.425566874968354,44.425566874968354,44.425566874968354,44.425566874968354,44.425566874968354,44.425566874968354,44.425566874968354,44.425566874968354,44.5551827919553,44.5551827919553,44.5551827919553,44.5551827919553,,,,,testl,2023-06-23_19h20.04.187,Pattern_1,2022.2.4,None,
slf11.xlsx,obs11.xlsx,test11.xlsx,,,,,,,,,,,,,,2,2,1,0,0,0,0,,,,,,,,,,,,,0,8,8,8,,,,,,,,,,,,,,,,,,,,,,,,,,,,,,,,,,,,,,,,,,,,,,,,,,,,,,,,,,,,,,,,,44.5551827919553,44.63291116699111,44.63291116699111,44.63291116699111,44.729026124987286,44.729026124987286,44.729026124987286,44.75991208298365,None,0,44.75991208298365,44.75991208298365,44.75991208298365,44.75991208298365,44.86077137500979,44.86077137500979,44.86077137500979,44.86077137500979,44.86077137500979,44.86077137500979,44.86077137500979,44.86077137500979,44.98915174999274,44.98915174999274,44.98915174999274,44.98915174999274,,,,,testl,2023-06-23_19h20.04.187,Pattern_1,2022.2.4,None,
slf11.xlsx,obs11.xlsx,test11.xlsx,,,,,,,,,,,,,,2,2,2,0,0,0,0,,,,,,,,,,,,,0,9,9,9,,,,,,,,,,,,,,,,,,,,,,,,,,,,,,,,,,,,,,,,,,,,,,,,,,,,,,,,,,,,,,,,,44.98915174999274,45.06603466696106,45.06603466696106,45.06603466696106,45.16236579196993,45.16236579196993,45.16236579196993,45.193556374986656,None,0,45.193556374986656,45.193556374986656,45.193556374986656,45.193556374986656,45.29346337495372,45.29346337495372,45.29346337495372,45.29346337495372,45.29346337495372,45.29346337495372,45.29346337495372,45.29346337495372,45.42239879199769,45.42239879199769,45.42239879199769,45.42239879199769,,,,,testl,2023-06-23_19h20.04.187,Pattern_1,2022.2.4,None,
slf11.xlsx,obs11.xlsx,test11.xlsx,,,,,,,,,,,,,,2,3,1,0,0,0,0,,,,,,,,,,,,,0,10,10,10,,,,,,,,,,,,,,,,,,,,,,,,,,,,,,,,,,,,,,,,,,,,,,,,,,,,,,,,,,,,,,,,,45.42239879199769,45.49914874997921,45.49914874997921,45.49914874997921,45.59573449997697,45.59573449997697,45.59573449997697,45.6257322919555,None,0,45.6257322919555,45.6257322919555,45.6257322919555,45.6257322919555,45.724911500001326,45.724911500001326,45.724911500001326,45.724911500001326,45.724911500001326,45.724911500001326,45.724911500001326,45.724911500001326,45.855580499977805,45.855580499977805,45.855580499977805,45.855580499977805,,,,,testl,2023-06-23_19h20.04.187,Pattern_1,2022.2.4,None,
slf11.xlsx,obs11.xlsx,test11.xlsx,,,,,,,,,,,,,,2,3,2,0,0,0,0,,,,,,,,,,,,,0,11,11,11,,,,,,,,,,,,,,,,,,,,,,,,,,,,,,,,,,,,,,,,,,,,,,,,,,,,,,,,,,,,,,,,,45.855580499977805,45.933311750006396,45.933311750006396,45.933311750006396,46.0290061669657,46.0290061669657,46.0290061669657,46.05816716700792,None,0,46.05816716700792,46.05816716700792,46.05816716700792,46.05816716700792,46.15819799999008,46.15819799999008,46.15819799999008,46.15819799999008,46.15819799999008,46.15819799999008,46.15819799999008,46.15819799999008,46.28931016696151,46.28931016696151,46.28931016696151,46.28931016696151,,,,,testl,2023-06-23_19h20.04.187,Pattern_1,2022.2.4,None,
slf11.xlsx,obs11.xlsx,test11.xlsx,,,,,,,,,,,,,,3,4,0,0,0,0,0,,,,,,,,,,,,,0,12,12,12,,,,,,,,,,,,,,,,,,,,,,,,,,,,,,,,,,,,,,,,,,,,,,,,,,,,,,,,,,,,,,,,,46.28931016696151,46.37106933299219,46.37106933299219,46.37106933299219,46.46602016699035,46.46602016699035,46.46602016699035,46.491067499970086,None,0,46.491067499970086,46.491067499970086,46.491067499970086,46.491067499970086,46.5910406250041,46.5910406250041,46.5910406250041,46.5910406250041,46.5910406250041,46.5910406250041,46.5910406250041,46.5910406250041,46.72511624998879,46.72511624998879,46.72511624998879,46.72511624998879,,,,,testl,2023-06-23_19h20.04.187,Pattern_1,2022.2.4,None,
slf11.xlsx,obs11.xlsx,test11.xlsx,,,,,,,,,,,,,,3,1,1,0,0,0,0,,,,,,,,,,,,,0,13,13,13,,,,,,,,,,,,,,,,,,,,,,,,,,,,,,,,,,,,,,,,,,,,,,,,,,,,,,,,,,,,,,,,,46.72511624998879,46.79896387498593,46.79896387498593,46.79896387498593,46.89570462499978,46.89570462499978,46.89570462499978,46.92650441697333,None,0,46.92650441697333,46.92650441697333,46.92650441697333,46.92650441697333,47.02667416696204,47.02667416696204,47.02667416696204,47.02667416696204,47.02667416696204,47.02667416696204,47.02667416696204,47.02667416696204,47.157636416959576,47.157636416959576,47.157636416959576,47.157636416959576,,,,,testl,2023-06-23_19h20.04.187,Pattern_1,2022.2.4,None,
slf11.xlsx,obs11.xlsx,test11.xlsx,,,,,,,,,,,,,,3,3,2,0,0,0,0,,,,,,,,,,,,,0,14,14,14,,,,,,,,,,,,,,,,,,,,,,,,,,,,,,,,,,,,,,,,,,,,,,,,,,,,,,,,,,,,,,,,,47.157636416959576,47.23375254200073,47.23375254200073,47.23375254200073,47.32901020796271,47.32901020796271,47.32901020796271,47.35925949999364,None,0,47.35925949999364,47.35925949999364,47.35925949999364,47.35925949999364,47.459667332994286,47.459667332994286,47.459667332994286,47.459667332994286,47.459667332994286,47.459667332994286,47.459667332994286,47.459667332994286,47.590910832979716,47.590910832979716,47.590910832979716,47.590910832979716,,,,,testl,2023-06-23_19h20.04.187,Pattern_1,2022.2.4,None,
slf11.xlsx,obs11.xlsx,test11.xlsx,,,,,,,,,,,,,,3,1,2,0,0,0,0,,,,,,,,,,,,,0,15,15,15,,,,,,,,,,,,,,,,,,,,,,,,,,,,,,,,,,,,,,,,,,,,,,,,,,,,,,,,,,,,,,,,,47.590910832979716,47.66587962495396,47.66587962495396,47.66587962495396,47.7624137919629,47.7624137919629,47.7624137919629,47.79111008299515,None,0,47.79111008299515,47.79111008299515,47.79111008299515,47.79111008299515,47.891311541956384,47.891311541956384,47.891311541956384,47.891311541956384,47.891311541956384,47.891311541956384,47.891311541956384,47.891311541956384,48.02652224997291,48.02652224997291,48.02652224997291,48.02652224997291,,,,,testl,2023-06-23_19h20.04.187,Pattern_1,2022.2.4,None,
slf11.xlsx,obs11.xlsx,test11.xlsx,,,,,,,,,,,,,,3,5,0,0,0,0,0,,,,,,,,,,,,,0,16,16,16,,,,,,,,,,,,,,,,,,,,,,,,,,,,,,,,,,,,,,,,,,,,,,,,,,,,,,,,,,,,,,,,,48.02652224997291,48.09967741696164,48.09967741696164,48.09967741696164,48.195696000009775,48.195696000009775,48.195696000009775,48.227422999974806,None,0,48.227422999974806,48.227422999974806,48.227422999974806,48.227422999974806,48.32678195799235,48.32678195799235,48.32678195799235,48.32678195799235,48.32678195799235,48.32678195799235,48.32678195799235,48.32678195799235,48.46019129198976,48.46019129198976,48.46019129198976,48.46019129198976,,,,,testl,2023-06-23_19h20.04.187,Pattern_1,2022.2.4,None,
slf11.xlsx,obs11.xlsx,test11.xlsx,,,,,,,,,,,,,,3,2,1,0,0,0,0,,,,,,,,,,,,,0,17,17,17,,,,,,,,,,,,,,,,,,,,,,,,,,,,,,,,,,,,,,,,,,,,,,,,,,,,,,,,,,,,,,,,,48.46019129198976,48.54575054196175,48.54575054196175,48.54575054196175,48.633288832963444,48.633288832963444,48.633288832963444,48.6592500419938,None,0,48.6592500419938,48.6592500419938,48.6592500419938,48.6592500419938,48.759966082987376,48.759966082987376,48.759966082987376,48.759966082987376,48.759966082987376,48.759966082987376,48.759966082987376,48.759966082987376,48.891331666964106,48.891331666964106,48.891331666964106,48.891331666964106,,,,,testl,2023-06-23_19h20.04.187,Pattern_1,2022.2.4,None,
slf11.xlsx,obs11.xlsx,test11.xlsx,,,,,,,,,,,,,,3,3,1,0,0,0,0,,,,,,,,,,,,,0,18,18,18,,,,,,,,,,,,,,,,,,,,,,,,,,,,,,,,,,,,,,,,,,,,,,,,,,,,,,,,,,,,,,,,,48.891331666964106,48.978988332964946,48.978988332964946,48.978988332964946,49.065956167003606,49.065956167003606,49.065956167003606,49.09049425000558,None,0,49.09049425000558,49.09049425000558,49.09049425000558,49.09049425000558,49.19061074999627,49.19061074999627,49.19061074999627,49.19061074999627,49.19061074999627,49.19061074999627,49.19061074999627,49.19061074999627,49.3286790419952,49.3286790419952,49.3286790419952,49.3286790419952,,,,,testl,2023-06-23_19h20.04.187,Pattern_1,2022.2.4,None,
slf11.xlsx,obs11.xlsx,test11.xlsx,,,,,,,,,,,,,,3,2,2,0,0,0,0,,,,,,,,,,,,,0,19,19,19,,,,,,,,,,,,,,,,,,,,,,,,,,,,,,,,,,,,,,,,,,,,,,,,,,,,,,,,,,,,,,,,,49.3286790419952,49.41234191699186,49.41234191699186,49.41234191699186,49.499183832958806,49.499183832958806,49.499183832958806,49.52582108299248,None,0,49.52582108299248,49.52582108299248,49.52582108299248,49.52582108299248,49.62605291698128,49.62605291698128,49.62605291698128,49.62605291698128,49.62605291698128,49.62605291698128,49.62605291698128,49.62605291698128,49.761008417000994,49.761008417000994,49.761008417000994,49.761008417000994,,,,,testl,2023-06-23_19h20.04.187,Pattern_1,2022.2.4,None,
slf11.xlsx,obs11.xlsx,test11.xlsx,,,,,,,,,,,,,,3,6,0,0,0,0,0,,,,,,,,,,,,,0,20,20,20,,,,,,,,,,,,,,,,,,,,,,,,,,,,,,,,,,,,,,,,,,,,,,,,,,,,,,,,,,,,,,,,,49.761008417000994,49.845732582965866,49.845732582965866,49.845732582965866,49.932612999982666,49.932612999982666,49.932612999982666,49.9584823329933,None,0,49.9584823329933,49.9584823329933,49.9584823329933,49.9584823329933,50.05892204196425,50.05892204196425,50.05892204196425,50.05892204196425,50.05892204196425,50.05892204196425,50.05892204196425,50.05892204196425,50.194626457989216,50.194626457989216,50.194626457989216,50.194626457989216,,,,,testl,2023-06-23_19h20.04.187,Pattern_1,2022.2.4,None,
slf11.xlsx,obs11.xlsx,test11.xlsx,,,,,,,,,,,,,,4,4,0,0,0,0,0,,,,,,,,,,,,,0,21,21,21,,,,,,,,,,,,,,,,,,,,,,,,,,,,,,,,,,,,,,,,,,,,,,,,,,,,,,,,,,,,,,,,,50.194626457989216,50.27898066700436,50.27898066700436,50.27898066700436,50.366012541984674,50.366012541984674,50.366012541984674,50.39136204199167,None,0,50.39136204199167,50.39136204199167,50.39136204199167,50.39136204199167,50.491372457996476,50.491372457996476,50.491372457996476,50.491372457996476,50.491372457996476,50.491372457996476,50.491372457996476,50.491372457996476,50.62789274996612,50.62789274996612,50.62789274996612,50.62789274996612,,,,,testl,2023-06-23_19h20.04.187,Pattern_1,2022.2.4,None,
slf11.xlsx,obs11.xlsx,test11.xlsx,,,,,,,,,,,,,,4,1,1,0,0,0,0,,,,,,,,,,,,,0,22,22,22,,,,,,,,,,,,,,,,,,,,,,,,,,,,,,,,,,,,,,,,,,,,,,,,,,,,,,,,,,,,,,,,,50.62789274996612,50.71238124999218,50.71238124999218,50.71238124999218,50.799279666971415,50.799279666971415,50.799279666971415,50.82520320796175,None,0,50.82520320796175,50.82520320796175,50.82520320796175,50.82520320796175,50.92491295799846,50.92491295799846,50.92491295799846,50.92491295799846,50.92491295799846,50.92491295799846,50.92491295799846,50.92491295799846,51.061328166979365,51.061328166979365,51.061328166979365,51.061328166979365,,,,,testl,2023-06-23_19h20.04.187,Pattern_1,2022.2.4,None,
slf11.xlsx,obs11.xlsx,test11.xlsx,,,,,,,,,,,,,,4,3,2,0,0,0,0,,,,,,,,,,,,,0,23,23,23,,,,,,,,,,,,,,,,,,,,,,,,,,,,,,,,,,,,,,,,,,,,,,,,,,,,,,,,,,,,,,,,,51.061328166979365,51.14882162498543,51.14882162498543,51.14882162498543,51.245670082978904,51.245670082978904,51.245670082978904,51.256947207963094,None,0,51.256947207963094,51.256947207963094,51.256947207963094,51.256947207963094,51.35809770796914,51.35809770796914,51.35809770796914,51.35809770796914,51.35809770796914,51.35809770796914,51.35809770796914,51.35809770796914,51.49762949999422,51.49762949999422,51.49762949999422,51.49762949999422,,,,,testl,2023-06-23_19h20.04.187,Pattern_1,2022.2.4,None,
slf11.xlsx,obs11.xlsx,test11.xlsx,,,,,,,,,,,,,,4,1,2,0,0,0,0,,,,,,,,,,,,,0,24,24,24,,,,,,,,,,,,,,,,,,,,,,,,,,,,,,,,,,,,,,,,,,,,,,,,,,,,,,,,,,,,,,,,,51.49762949999422,51.58245829195948,51.58245829195948,51.58245829195948,51.67902924999362,51.67902924999362,51.67902924999362,51.698893999971915,None,0,51.698893999971915,51.698893999971915,51.698893999971915,51.698893999971915,51.79897704196628,51.79897704196628,51.79897704196628,51.79897704196628,51.79897704196628,51.79897704196628,51.79897704196628,51.79897704196628,51.935778791958,51.935778791958,51.935778791958,51.935778791958,,,,,testl,2023-06-23_19h20.04.187,Pattern_1,2022.2.4,None,
slf11.xlsx,obs11.xlsx,test11.xlsx,,,,,,,,,,,,,,4,5,0,0,0,0,0,,,,,,,,,,,,,0,25,25,25,,,,,,,,,,,,,,,,,,,,,,,,,,,,,,,,,,,,,,,,,,,,,,,,,,,,,,,,,,,,,,,,,51.935778791958,52.01611991698155,52.01611991698155,52.01611991698155,52.11232933297288,52.11232933297288,52.11232933297288,52.14328687498346,None,0,52.14328687498346,52.14328687498346,52.14328687498346,52.14328687498346,52.243674999976065,52.243674999976065,52.243674999976065,52.243674999976065,52.243674999976065,52.243674999976065,52.243674999976065,52.243674999976065,52.38924154196866,52.38924154196866,52.38924154196866,52.38924154196866,,,,,testl,2023-06-23_19h20.04.187,Pattern_1,2022.2.4,None,
slf11.xlsx,obs11.xlsx,test11.xlsx,,,,,,,,,,,,,,4,2,1,0,0,0,0,,,,,,,,,,,,,0,26,26,26,,,,,,,,,,,,,,,,,,,,,,,,,,,,,,,,,,,,,,,,,,,,,,,,,,,,,,,,,,,,,,,,,52.38924154196866,52.466341499995906,52.466341499995906,52.466341499995906,52.56234520795988,52.56234520795988,52.56234520795988,52.592517374956515,None,0,52.592517374956515,52.592517374956515,52.592517374956515,52.592517374956515,52.692873332998715,52.692873332998715,52.692873332998715,52.692873332998715,52.692873332998715,52.692873332998715,52.692873332998715,52.692873332998715,52.83338670799276,52.83338670799276,52.83338670799276,52.83338670799276,,,,,testl,2023-06-23_19h20.04.187,Pattern_1,2022.2.4,None,
slf11.xlsx,obs11.xlsx,test11.xlsx,,,,,,,,,,,,,,4,3,1,0,0,0,0,,,,,,,,,,,,,0,27,27,27,,,,,,,,,,,,,,,,,,,,,,,,,,,,,,,,,,,,,,,,,,,,,,,,,,,,,,,,,,,,,,,,,52.83338670799276,52.91654812498018,52.91654812498018,52.91654812498018,53.0125025419984,53.0125025419984,53.0125025419984,53.03290041699074,None,0,53.03290041699074,53.03290041699074,53.03290041699074,53.03290041699074,53.136282707971986,53.136282707971986,53.136282707971986,53.136282707971986,53.136282707971986,53.136282707971986,53.136282707971986,53.136282707971986,53.35041508299764,53.35041508299764,53.35041508299764,53.35041508299764,,,,,testl,2023-06-23_19h20.04.187,Pattern_1,2022.2.4,None,
slf11.xlsx,obs11.xlsx,test11.xlsx,,,,,,,,,,,,,,4,2,2,0,0,0,0,,,,,,,,,,,,,0,28,28,28,,,,,,,,,,,,,,,,,,,,,,,,,,,,,,,,,,,,,,,,,,,,,,,,,,,,,,,,,,,,,,,,,53.35041508299764,53.4330433330033,53.4330433330033,53.4330433330033,53.529148083005566,53.529148083005566,53.529148083005566,53.55015333299525,None,0,53.55015333299525,53.55015333299525,53.55015333299525,53.55015333299525,53.65014549996704,53.65014549996704,53.65014549996704,53.65014549996704,53.65014549996704,53.65014549996704,53.65014549996704,53.65014549996704,53.78521533298772,53.78521533298772,53.78521533298772,53.78521533298772,,,,,testl,2023-06-23_19h20.04.187,Pattern_1,2022.2.4,None,
slf11.xlsx,obs11.xlsx,test11.xlsx,,,,,,,,,,,,,,4,6,0,0,0,0,0,,,,,,,,,,,,,0,29,29,29,,,,,,,,,,,,,,,,,,,,,,,,,,,,,,,,,,,,,,,,,,,,,,,,,,,,,,,,,,,,,,,,,53.78521533298772,53.86642874998506,53.86642874998506,53.86642874998506,53.96236649999628,53.96236649999628,53.96236649999628,53.99182708299486,None,0,53.99182708299486,53.99182708299486,53.99182708299486,53.99182708299486,54.092083457973786,54.092083457973786,54.092083457973786,54.092083457973786,54.092083457973786,54.092083457973786,54.092083457973786,54.092083457973786,54.26119879196631,54.26119879196631,54.26119879196631,54.26119879196631,,,,,testl,2023-06-23_19h20.04.187,Pattern_1,2022.2.4,None,
slf11.xlsx,obs11.xlsx,test11.xlsx,,,,,,,,,,,,,,,,,0,0,0,0,,,,,,,,,,,,,,,,,,,,,,,,,,,,,,,,,,,,,,,,,,,,,,,,,,,,,,,,,,,,,,,,,,,,,,,,,,,,,,,,,,,,,,,,,,,,,,,,,,,,,,,,,,,54.26119879196631,54.26119879196631,space,6.904087540984619,testl,2023-06-23_19h20.04.187,Pattern_1,2022.2.4,None,
slf12.xlsx,obs12.xlsx,test12.xlsx,0,2,1,40,50,,,,,,,,,,,,0,1,1,1,0,0,0,0,,,,,,,,,,,,,,,,,,,,,64.17212237499189,66.18422891700175,66.18422891700175,66.26578383299056,66.26578383299056,66.26578383299056,66.36235883296467,66.36235883296467,66.36235883296467,66.39227441698313,None,0,66.39227441698313,66.39227441698313,66.39227441698313,66.39227441698313,66.49240774998907,66.49240774998907,66.49240774998907,66.49240774998907,66.49240774998907,66.49240774998907,66.49240774998907,66.49240774998907,66.63302316697082,66.63302316697082,66.63302316697082,66.63302316697082,,,,,,,,,,,,,,,,,,,,,,,,,,,,,,,,,,,,,,,,,,,,,,,,,,,,,,,,,,,testl,2023-06-23_19h20.04.187,Pattern_1,2022.2.4,None,
slf12.xlsx,obs12.xlsx,test12.xlsx,0,3,2,30,50,,,,,,,,,,,,0,1,1,1,0,1,1,1,,,,,,,,,,,,,,,,,,,,,,,66.63302316697082,66.71598241699394,66.71598241699394,66.71598241699394,66.81233024998801,66.81233024998801,66.81233024998801,66.82883658300852,None,0,66.82883658300852,66.82883658300852,66.82883658300852,66.82883658300852,66.92494995798916,66.92494995798916,66.92494995798916,66.92494995798916,66.92494995798916,66.92494995798916,66.92494995798916,66.92494995798916,67.06853724998655,67.06853724998655,67.06853724998655,67.06853724998655,,,,,,,,,,,,,,,,,,,,,,,,,,,,,,,,,,,,,,,,,,,,,,,,,,,,,,,,,,,testl,2023-06-23_19h20.04.187,Pattern_1,2022.2.4,None,
slf12.xlsx,obs12.xlsx,test12.xlsx,0,1,2,40,30,,,,,,,,,,,,0,1,1,1,0,2,2,2,,,,,,,,,,,,,,,,,,,,,,,67.06853724998655,67.15306895796675,67.15306895796675,67.15306895796675,67.2491368749761,67.2491368749761,67.2491368749761,67.27571541699581,None,0,67.27571541699581,67.27571541699581,67.27571541699581,67.27571541699581,67.37643237499287,67.37643237499287,67.37643237499287,67.37643237499287,67.37643237499287,67.37643237499287,67.37643237499287,67.37643237499287,67.51700695796171,67.51700695796171,67.51700695796171,67.51700695796171,,,,,,,,,,,,,,,,,,,,,,,,,,,,,,,,,,,,,,,,,,,,,,,,,,,,,,,,,,,testl,2023-06-23_19h20.04.187,Pattern_1,2022.2.4,None,
slf12.xlsx,obs12.xlsx,test12.xlsx,0,3,1,50,30,,,,,,,,,,,,0,1,1,1,0,3,3,3,,,,,,,,,,,,,,,,,,,,,,,67.51700695796171,67.5992076669936,67.5992076669936,67.5992076669936,67.69574941700557,67.69574941700557,67.69574941700557,67.72906091698678,None,0,67.72906091698678,67.72906091698678,67.72906091698678,67.72906091698678,67.82493670796975,67.82493670796975,67.82493670796975,67.82493670796975,67.82493670796975,67.82493670796975,67.82493670796975,67.82493670796975,67.96938095800579,67.96938095800579,67.96938095800579,67.96938095800579,,,,,,,,,,,,,,,,,,,,,,,,,,,,,,,,,,,,,,,,,,,,,,,,,,,,,,,,,,,testl,2023-06-23_19h20.04.187,Pattern_1,2022.2.4,None,
slf12.xlsx,obs12.xlsx,test12.xlsx,0,1,1,30,40,,,,,,,,,,,,0,1,1,1,0,4,4,4,,,,,,,,,,,,,,,,,,,,,,,67.96938095800579,68.04987200000323,68.04987200000323,68.04987200000323,68.1456139999791,68.1456139999791,68.1456139999791,68.17568387498613,None,0,68.17568387498613,68.17568387498613,68.17568387498613,68.17568387498613,68.27577454200946,68.27577454200946,68.27577454200946,68.27577454200946,68.27577454200946,68.27577454200946,68.27577454200946,68.27577454200946,68.41918908298248,68.41918908298248,68.41918908298248,68.41918908298248,,,,,,,,,,,,,,,,,,,,,,,,,,,,,,,,,,,,,,,,,,,,,,,,,,,,,,,,,,,testl,2023-06-23_19h20.04.187,Pattern_1,2022.2.4,None,
slf12.xlsx,obs12.xlsx,test12.xlsx,0,2,2,50,40,,,,,,,,,,,,0,1,1,1,0,5,5,5,,,,,,,,,,,,,,,,,,,,,,,68.41918908298248,68.49992400000338,68.49992400000338,68.49992400000338,68.59562845795881,68.59562845795881,68.59562845795881,68.62498058297206,None,0,68.62498058297206,68.62498058297206,68.62498058297206,68.62498058297206,68.72533787495922,68.72533787495922,68.72533787495922,68.72533787495922,68.72533787495922,68.72533787495922,68.72533787495922,68.72533787495922,68.86863179196371,68.86863179196371,68.86863179196371,68.86863179196371,,,,,,,,,,,,,,,,,,,,,,,,,,,,,,,,,,,,,,,,,,,,,,,,,,,,,,,,,,,testl,2023-06-23_19h20.04.187,Pattern_1,2022.2.4,None,
slf12.xlsx,obs12.xlsx,test12.xlsx,0,3,2,30,50,,,,,,,,,,,,0,1,1,1,0,6,6,6,,,,,,,,,,,,,,,,,,,,,,,68.86863179196371,68.94990337500349,68.94990337500349,68.94990337500349,69.0455777499592,69.0455777499592,69.0455777499592,69.07461266696919,None,0,69.07461266696919,69.07461266696919,69.07461266696919,69.07461266696919,69.17497120797634,69.17497120797634,69.17497120797634,69.17497120797634,69.17497120797634,69.17497120797634,69.17497120797634,69.17497120797634,69.32028066698695,69.32028066698695,69.32028066698695,69.32028066698695,,,,,,,,,,,,,,,,,,,,,,,,,,,,,,,,,,,,,,,,,,,,,,,,,,,,,,,,,,,testl,2023-06-23_19h20.04.187,Pattern_1,2022.2.4,None,
slf12.xlsx,obs12.xlsx,test12.xlsx,0,2,1,40,50,,,,,,,,,,,,0,1,1,1,0,7,7,7,,,,,,,,,,,,,,,,,,,,,,,69.32028066698695,69.39969862496946,69.39969862496946,69.39969862496946,69.49564445798751,69.49564445798751,69.49564445798751,69.52502312499564,None,0,69.52502312499564,69.52502312499564,69.52502312499564,69.52502312499564,69.62514041695977,69.62514041695977,69.62514041695977,69.62514041695977,69.62514041695977,69.62514041695977,69.62514041695977,69.62514041695977,69.77233954198891,69.77233954198891,69.77233954198891,69.77233954198891,,,,,,,,,,,,,,,,,,,,,,,,,,,,,,,,,,,,,,,,,,,,,,,,,,,,,,,,,,,testl,2023-06-23_19h20.04.187,Pattern_1,2022.2.4,None,
slf12.xlsx,obs12.xlsx,test12.xlsx,0,1,2,40,30,,,,,,,,,,,,0,1,1,1,0,8,8,8,,,,,,,,,,,,,,,,,,,,,,,69.77233954198891,69.84966079198057,69.84966079198057,69.84966079198057,69.94579570798669,69.94579570798669,69.94579570798669,69.97568779200083,None,0,69.97568779200083,69.97568779200083,69.97568779200083,69.97568779200083,70.07587166700978,70.07587166700978,70.07587166700978,70.07587166700978,70.07587166700978,70.07587166700978,70.07587166700978,70.07587166700978,70.22139195800992,70.22139195800992,70.22139195800992,70.22139195800992,,,,,,,,,,,,,,,,,,,,,,,,,,,,,,,,,,,,,,,,,,,,,,,,,,,,,,,,,,,testl,2023-06-23_19h20.04.187,Pattern_1,2022.2.4,None,
slf12.xlsx,obs12.xlsx,test12.xlsx,None,None,None,None,None,,,,,,,,,,,,0,1,1,1,0,9,9,9,,,,,,,,,,,,,,,,,,,,,,,70.22139195800992,70.29970737500116,70.29970737500116,70.29970737500116,70.39565041696187,70.39565041696187,70.39565041696187,70.42569750000257,None,0,70.42569750000257,70.42569750000257,70.42569750000257,70.42569750000257,70.52589466696372,70.52589466696372,70.52589466696372,70.52589466696372,70.52589466696372,70.52589466696372,70.52589466696372,70.52589466696372,70.67255799996201,70.67255799996201,70.67255799996201,70.67255799996201,,,,,,,,,,,,,,,,,,,,,,,,,,,,,,,,,,,,,,,,,,,,,,,,,,,,,,,,,,,testl,2023-06-23_19h20.04.187,Pattern_1,2022.2.4,None,
slf12.xlsx,obs12.xlsx,test12.xlsx,None,None,None,None,None,,,,,,,,,,,,0,1,1,1,0,10,10,10,,,,,,,,,,,,,,,,,,,,,,,70.67255799996201,70.749173374963,70.749173374963,70.749173374963,70.845645333,70.845645333,70.845645333,70.87561374995857,None,0,70.87561374995857,70.87561374995857,70.87561374995857,70.87561374995857,70.97588095796527,70.97588095796527,70.97588095796527,70.97588095796527,70.97588095796527,70.97588095796527,70.97588095796527,70.97588095796527,71.12291437498061,71.12291437498061,71.12291437498061,71.12291437498061,,,,,,,,,,,,,,,,,,,,,,,,,,,,,,,,,,,,,,,,,,,,,,,,,,,,,,,,,,,testl,2023-06-23_19h20.04.187,Pattern_1,2022.2.4,None,
slf12.xlsx,obs12.xlsx,test12.xlsx,None,None,None,None,None,,,,,,,,,,,,0,1,1,1,0,11,11,11,,,,,,,,,,,,,,,,,,,,,,,71.12291437498061,71.19923370797187,71.19923370797187,71.19923370797187,71.29574866697658,71.29574866697658,71.29574866697658,71.32573770795716,None,0,71.32573770795716,71.32573770795716,71.32573770795716,71.32573770795716,71.42583037499571,71.42583037499571,71.42583037499571,71.42583037499571,71.42583037499571,71.42583037499571,71.42583037499571,71.42583037499571,71.59651949995896,71.59651949995896,71.59651949995896,71.59651949995896,,,,,,,,,,,,,,,,,,,,,,,,,,,,,,,,,,,,,,,,,,,,,,,,,,,,,,,,,,,testl,2023-06-23_19h20.04.187,Pattern_1,2022.2.4,None,
slf12.xlsx,obs12.xlsx,test12.xlsx,,,,,,0,1,1,left,low,0,0.5,0.5,,,,0,1,1,1,,,,,,,,,0,0,0,0,,,,,,,,,,,,,,,,,,,,,,,,,,,,,,,,,,,,,,,,,71.59651949995896,73.5853283329634,73.64924854197307,73.64924854197307,74.14927758299746,74.24565112497658,74.24565112497658,74.24565112497658,74.28260679199593,74.28260679199593,74.28260679199593,74.28260679199593,74.28260679199593,74.3656752500101,74.46233970799949,74.8852507499978,74.8852507499978,74.8852507499978,74.8852507499978,74.8852507499978,74.8852507499978,74.8852507499978,74.8852507499978,75.04203991696704,75.04203991696704,75.04203991696704,75.04203991696704,,,,,,,,,,,,,,,,,,,,,,,,,,,,,,,,testl,2023-06-23_19h20.04.187,Pattern_1,2022.2.4,None,
slf12.xlsx,obs12.xlsx,test12.xlsx,,,,,,0,2,2,right,high,0,0.5,0.5,,,,0,1,1,1,,,,,,,,,0,1,1,1,,,,,,,,,,,,,,,,,,,,,,,,,,,,,,,,,,,,,,,,,,75.04203991696704,75.11638495797524,75.11638495797524,75.6177200829843,75.7122872499749,75.7122872499749,75.7122872499749,75.7342676249682,75.7342676249682,75.7342676249682,75.7342676249682,75.7342676249682,75.8173112499644,75.91227033297764,76.33575308299623,76.33575308299623,76.33575308299623,76.33575308299623,76.33575308299623,76.33575308299623,76.33575308299623,76.33575308299623,76.4904916670057,76.4904916670057,76.4904916670057,76.4904916670057,,,,,,,,,,,,,,,,,,,,,,,,,,,,,,,,testl,2023-06-23_19h20.04.187,Pattern_1,2022.2.4,None,
slf12.xlsx,obs12.xlsx,test12.xlsx,,,,,,0,3,1,left,low,0,0.5,0.5,,,,0,1,1,1,,,,,,,,,0,2,2,2,,,,,,,,,,,,,,,,,,,,,,,,,,,,,,,,,,,,,,,,,,76.4904916670057,76.56626654200954,76.56626654200954,77.06739262497285,77.16241150000133,77.16241150000133,77.16241150000133,77.18457662500441,77.18457662500441,77.18457662500441,77.18457662500441,77.18457662500441,77.2680347499554,77.36634504195536,77.79128537495853,77.79128537495853,77.79128537495853,77.79128537495853,77.79128537495853,77.79128537495853,77.79128537495853,77.79128537495853,78.0090449579875,78.0090449579875,78.0090449579875,78.0090449579875,,,,,,,,,,,,,,,,,,,,,,,,,,,,,,,,testl,2023-06-23_19h20.04.187,Pattern_1,2022.2.4,None,
slf12.xlsx,obs12.xlsx,test12.xlsx,,,,,,0,2,1,right,high,0,0.5,0.5,,,,0,1,1,1,,,,,,,,,0,3,3,3,,,,,,,,,,,,,,,,,,,,,,,,,,,,,,,,,,,,,,,,,,78.0090449579875,78.0832717079902,78.0832717079902,78.58292929199524,78.67892462498276,78.67892462498276,78.67892462498276,78.69985070795519,78.69985070795519,78.69985070795519,78.69985070795519,78.69985070795519,78.78246558300452,78.87891708296956,79.2992856669589,79.2992856669589,79.2992856669589,79.2992856669589,79.2992856669589,79.2992856669589,79.2992856669589,79.2992856669589,79.44604937499389,79.44604937499389,79.44604937499389,79.44604937499389,,,,,,,,,,,,,,,,,,,,,,,,,,,,,,,,testl,2023-06-23_19h20.04.187,Pattern_1,2022.2.4,None,
slf12.xlsx,obs12.xlsx,test12.xlsx,,,,,,0,1,2,left,low,0,0.5,0.5,,,,0,1,1,1,,,,,,,,,0,4,4,4,,,,,,,,,,,,,,,,,,,,,,,,,,,,,,,,,,,,,,,,,,79.44604937499389,79.5323472499731,79.5323472499731,80.03285808296641,80.12893083295785,80.12893083295785,80.12893083295785,80.13313262496376,80.13313262496376,80.13313262496376,80.13313262496376,80.13313262496376,80.21687245799694,80.31225616700249,80.74568487500073,80.74568487500073,80.74568487500073,80.74568487500073,80.74568487500073,80.74568487500073,80.74568487500073,80.74568487500073,80.8921316670021,80.8921316670021,80.8921316670021,80.8921316670021,,,,,,,,,,,,,,,,,,,,,,,,,,,,,,,,testl,2023-06-23_19h20.04.187,Pattern_1,2022.2.4,None,
slf12.xlsx,obs12.xlsx,test12.xlsx,,,,,,0,3,2,right,high,0,0.5,0.5,,,,0,1,1,1,,,,,,,,,0,5,5,5,,,,,,,,,,,,,,,,,,,,,,,,,,,,,,,,,,,,,,,,,,80.8921316670021,80.97894624999026,80.97894624999026,81.4789260829566,81.56652433297131,81.56652433297131,81.56652433297131,81.58347629196942,81.58347629196942,81.58347629196942,81.58347629196942,81.58347629196942,81.66670775000239,81.7622215419542,82.17869433300802,82.17869433300802,82.17869433300802,82.17869433300802,82.17869433300802,82.17869433300802,82.17869433300802,82.17869433300802,82.32729987497441,82.32729987497441,82.32729987497441,82.32729987497441,,,,,,,,,,,,,,,,,,,,,,,,,,,,,,,,testl,2023-06-23_19h20.04.187,Pattern_1,2022.2.4,None,
slf12.xlsx,obs12.xlsx,test12.xlsx,,,,,,0,1,1,left,low,0,0.5,0.5,,,,0,1,1,1,,,,,,,,,0,6,6,6,,,,,,,,,,,,,,,,,,,,,,,,,,,,,,,,,,,,,,,,,,82.32729987497441,82.41238629200961,82.41238629200961,82.91228220798075,82.99894495797344,82.99894495797344,82.99894495797344,83.01582812500419,83.01582812500419,83.01582812500419,83.01582812500419,83.01582812500419,83.09895433299243,83.19555954198586,83.61205949995201,83.61205949995201,83.61205949995201,83.61205949995201,83.61205949995201,83.61205949995201,83.61205949995201,83.61205949995201,83.76014912500978,83.76014912500978,83.76014912500978,83.76014912500978,,,,,,,,,,,,,,,,,,,,,,,,,,,,,,,,testl,2023-06-23_19h20.04.187,Pattern_1,2022.2.4,None,
slf12.xlsx,obs12.xlsx,test12.xlsx,,,,,,0,3,1,right,high,0,0.5,0.5,,,,0,1,1,1,,,,,,,,,0,7,7,7,,,,,,,,,,,,,,,,,,,,,,,,,,,,,,,,,,,,,,,,,,83.76014912500978,83.84561408299487,83.84561408299487,84.34559970797272,84.4323117499589,84.4323117499589,84.4323117499589,84.44889945798786,84.44889945798786,84.44889945798786,84.44889945798786,84.44889945798786,84.53251595800975,84.62891637498979,85.04546587500954,85.04546587500954,85.04546587500954,85.04546587500954,85.04546587500954,85.04546587500954,85.04546587500954,85.04546587500954,85.19626441696892,85.19626441696892,85.19626441696892,85.19626441696892,,,,,,,,,,,,,,,,,,,,,,,,,,,,,,,,testl,2023-06-23_19h20.04.187,Pattern_1,2022.2.4,None,
slf12.xlsx,obs12.xlsx,test12.xlsx,,,,,,0,2,2,left,low,0,0.5,0.5,,,,0,1,1,1,,,,,,,,,0,8,8,8,,,,,,,,,,,,,,,,,,,,,,,,,,,,,,,,,,,,,,,,,,85.19626441696892,85.27899591700407,85.27899591700407,85.77893341699382,85.86575045797508,85.86575045797508,85.86575045797508,85.88246008299757,85.88246008299757,85.88246008299757,85.88246008299757,85.88246008299757,85.96672550000949,86.06219829199836,86.48377295798855,86.48377295798855,86.48377295798855,86.48377295798855,86.48377295798855,86.48377295798855,86.48377295798855,86.48377295798855,86.65523537498666,86.65523537498666,86.65523537498666,86.65523537498666,,,,,,,,,,,,,,,,,,,,,,,,,,,,,,,,testl,2023-06-23_19h20.04.187,Pattern_1,2022.2.4,None,
slf12.xlsx,obs12.xlsx,test12.xlsx,,,,,,,,,,,,,,1,1,1,0,1,1,1,,,,,,,,,,,,,0,0,0,0,,,,,,,,,,,,,,,,,,,,,,,,,,,,,,,,,,,,,,,,,,,,,,,,,,,,,,,,,,,,,,,,86.65523537498666,88.65082174999407,88.71541362500284,88.71541362500284,88.71541362500284,88.8122726669535,88.8122726669535,88.8122726669535,88.85917454195442,None,0,88.85917454195442,88.85917454195442,88.85917454195442,88.85917454195442,88.95928904198809,88.95928904198809,88.95928904198809,88.95928904198809,88.95928904198809,88.95928904198809,88.95928904198809,88.95928904198809,89.11716262495611,89.11716262495611,89.11716262495611,89.11716262495611,,,,,testl,2023-06-23_19h20.04.187,Pattern_1,2022.2.4,None,
slf12.xlsx,obs12.xlsx,test12.xlsx,,,,,,,,,,,,,,1,1,2,0,1,1,1,,,,,,,,,,,,,0,1,1,1,,,,,,,,,,,,,,,,,,,,,,,,,,,,,,,,,,,,,,,,,,,,,,,,,,,,,,,,,,,,,,,,,89.11716262495611,89.19558787497226,89.19558787497226,89.19558787497226,89.28444224997656,89.28444224997656,89.28444224997656,89.32694033300504,None,0,89.32694033300504,89.32694033300504,89.32694033300504,89.32694033300504,89.42601224995451,89.42601224995451,89.42601224995451,89.42601224995451,89.42601224995451,89.42601224995451,89.42601224995451,89.42601224995451,89.5834895829903,89.5834895829903,89.5834895829903,89.5834895829903,,,,,testl,2023-06-23_19h20.04.187,Pattern_1,2022.2.4,None,
slf12.xlsx,obs12.xlsx,test12.xlsx,,,,,,,,,,,,,,1,2,1,0,1,1,1,,,,,,,,,,,,,0,2,2,2,,,,,,,,,,,,,,,,,,,,,,,,,,,,,,,,,,,,,,,,,,,,,,,,,,,,,,,,,,,,,,,,,89.5834895829903,89.6670105420053,89.6670105420053,89.6670105420053,89.76227674999973,89.76227674999973,89.76227674999973,89.78277737495955,None,0,89.78277737495955,89.78277737495955,89.78277737495955,89.78277737495955,89.8839077919838,89.8839077919838,89.8839077919838,89.8839077919838,89.8839077919838,89.8839077919838,89.8839077919838,89.8839077919838,90.04940991697367,90.04940991697367,90.04940991697367,90.04940991697367,,,,,testl,2023-06-23_19h20.04.187,Pattern_1,2022.2.4,None,
slf12.xlsx,obs12.xlsx,test12.xlsx,,,,,,,,,,,,,,1,2,2,0,1,1,1,,,,,,,,,,,,,0,3,3,3,,,,,,,,,,,,,,,,,,,,,,,,,,,,,,,,,,,,,,,,,,,,,,,,,,,,,,,,,,,,,,,,,90.04940991697367,90.13343491696287,90.13343491696287,90.13343491696287,90.22892154200235,90.22892154200235,90.22892154200235,90.26233279198641,None,0,90.26233279198641,90.26233279198641,90.26233279198641,90.26233279198641,90.35864545800723,90.35864545800723,90.35864545800723,90.35864545800723,90.35864545800723,90.35864545800723,90.35864545800723,90.35864545800723,90.51627299998654,90.51627299998654,90.51627299998654,90.51627299998654,,,,,testl,2023-06-23_19h20.04.187,Pattern_1,2022.2.4,None,
slf12.xlsx,obs12.xlsx,test12.xlsx,,,,,,,,,,,,,,1,3,1,0,1,1,1,,,,,,,,,,,,,0,4,4,4,,,,,,,,,,,,,,,,,,,,,,,,,,,,,,,,,,,,,,,,,,,,,,,,,,,,,,,,,,,,,,,,,90.51627299998654,90.60001404199284,90.60001404199284,90.60001404199284,90.69555099995341,90.69555099995341,90.69555099995341,90.72899008297827,None,0,90.72899008297827,90.72899008297827,90.72899008297827,90.72899008297827,90.82503454200923,90.82503454200923,90.82503454200923,90.82503454200923,90.82503454200923,90.82503454200923,90.82503454200923,90.82503454200923,90.98336779198144,90.98336779198144,90.98336779198144,90.98336779198144,,,,,testl,2023-06-23_19h20.04.187,Pattern_1,2022.2.4,None,
slf12.xlsx,obs12.xlsx,test12.xlsx,,,,,,,,,,,,,,1,3,2,0,1,1,1,,,,,,,,,,,,,0,5,5,5,,,,,,,,,,,,,,,,,,,,,,,,,,,,,,,,,,,,,,,,,,,,,,,,,,,,,,,,,,,,,,,,,90.98336779198144,91.06620075000683,91.06620075000683,91.06620075000683,91.16218841698719,91.16218841698719,91.16218841698719,91.19561112497468,None,0,91.19561112497468,91.19561112497468,91.19561112497468,91.19561112497468,91.29165095801,91.29165095801,91.29165095801,91.29165095801,91.29165095801,91.29165095801,91.29165095801,91.29165095801,91.51627224998083,91.51627224998083,91.51627224998083,91.51627224998083,,,,,testl,2023-06-23_19h20.04.187,Pattern_1,2022.2.4,None,
slf12.xlsx,obs12.xlsx,test12.xlsx,,,,,,,,,,,,,,2,1,1,0,1,1,1,,,,,,,,,,,,,0,6,6,6,,,,,,,,,,,,,,,,,,,,,,,,,,,,,,,,,,,,,,,,,,,,,,,,,,,,,,,,,,,,,,,,,91.51627224998083,91.5992502499721,91.5992502499721,91.5992502499721,91.69554241700098,91.69554241700098,91.69554241700098,91.72538816696033,None,0,91.72538816696033,91.72538816696033,91.72538816696033,91.72538816696033,91.82529679196887,91.82529679196887,91.82529679196887,91.82529679196887,91.82529679196887,91.82529679196887,91.82529679196887,91.82529679196887,91.98241029196652,91.98241029196652,91.98241029196652,91.98241029196652,,,,,testl,2023-06-23_19h20.04.187,Pattern_1,2022.2.4,None,
slf12.xlsx,obs12.xlsx,test12.xlsx,,,,,,,,,,,,,,2,1,2,0,1,1,1,,,,,,,,,,,,,0,7,7,7,,,,,,,,,,,,,,,,,,,,,,,,,,,,,,,,,,,,,,,,,,,,,,,,,,,,,,,,,,,,,,,,,91.98241029196652,92.06577087496407,92.06577087496407,92.06577087496407,92.16212237498257,92.16212237498257,92.16212237498257,92.19558187498478,None,0,92.19558187498478,92.19558187498478,92.19558187498478,92.19558187498478,92.29187170800287,92.29187170800287,92.29187170800287,92.29187170800287,92.29187170800287,92.29187170800287,92.29187170800287,92.29187170800287,92.45089004200418,92.45089004200418,92.45089004200418,92.45089004200418,,,,,testl,2023-06-23_19h20.04.187,Pattern_1,2022.2.4,None,
slf12.xlsx,obs12.xlsx,test12.xlsx,,,,,,,,,,,,,,2,2,1,0,1,1,1,,,,,,,,,,,,,0,8,8,8,,,,,,,,,,,,,,,,,,,,,,,,,,,,,,,,,,,,,,,,,,,,,,,,,,,,,,,,,,,,,,,,,92.45089004200418,92.53275224997196,92.53275224997196,92.53275224997196,92.62885070795892,92.62885070795892,92.62885070795892,92.65979979198892,None,0,92.65979979198892,92.65979979198892,92.65979979198892,92.65979979198892,92.76004408299923,92.76004408299923,92.76004408299923,92.76004408299923,92.76004408299923,92.76004408299923,92.76004408299923,92.76004408299923,92.91816999996081,92.91816999996081,92.91816999996081,92.91816999996081,,,,,testl,2023-06-23_19h20.04.187,Pattern_1,2022.2.4,None,
slf12.xlsx,obs12.xlsx,test12.xlsx,,,,,,,,,,,,,,2,2,2,0,1,1,1,,,,,,,,,,,,,0,9,9,9,,,,,,,,,,,,,,,,,,,,,,,,,,,,,,,,,,,,,,,,,,,,,,,,,,,,,,,,,,,,,,,,,92.91816999996081,93.00020041700918,93.00020041700918,93.00020041700918,93.09553183300886,93.09553183300886,93.09553183300886,93.12632204196416,None,0,93.12632204196416,93.12632204196416,93.12632204196416,93.12632204196416,93.22664537496166,93.22664537496166,93.22664537496166,93.22664537496166,93.22664537496166,93.22664537496166,93.22664537496166,93.22664537496166,93.38330437499098,93.38330437499098,93.38330437499098,93.38330437499098,,,,,testl,2023-06-23_19h20.04.187,Pattern_1,2022.2.4,None,
slf12.xlsx,obs12.xlsx,test12.xlsx,,,,,,,,,,,,,,2,3,1,0,1,1,1,,,,,,,,,,,,,0,10,10,10,,,,,,,,,,,,,,,,,,,,,,,,,,,,,,,,,,,,,,,,,,,,,,,,,,,,,,,,,,,,,,,,,93.38330437499098,93.46648766699946,93.46648766699946,93.46648766699946,93.56218549999176,93.56218549999176,93.56218549999176,93.57868116698228,None,0,93.57868116698228,93.57868116698228,93.57868116698228,93.57868116698228,93.67463437496917,93.67463437496917,93.67463437496917,93.67463437496917,93.67463437496917,93.67463437496917,93.67463437496917,93.67463437496917,93.8335101249977,93.8335101249977,93.8335101249977,93.8335101249977,,,,,testl,2023-06-23_19h20.04.187,Pattern_1,2022.2.4,None,
slf12.xlsx,obs12.xlsx,test12.xlsx,,,,,,,,,,,,,,2,3,2,0,1,1,1,,,,,,,,,,,,,0,11,11,11,,,,,,,,,,,,,,,,,,,,,,,,,,,,,,,,,,,,,,,,,,,,,,,,,,,,,,,,,,,,,,,,,93.8335101249977,93.91653933300404,93.91653933300404,93.91653933300404,94.01225945795886,94.01225945795886,94.01225945795886,94.0414136669715,None,0,94.0414136669715,94.0414136669715,94.0414136669715,94.0414136669715,94.14137845800724,94.14137845800724,94.14137845800724,94.14137845800724,94.14137845800724,94.14137845800724,94.14137845800724,94.14137845800724,94.30044687498594,94.30044687498594,94.30044687498594,94.30044687498594,,,,,testl,2023-06-23_19h20.04.187,Pattern_1,2022.2.4,None,
slf12.xlsx,obs12.xlsx,test12.xlsx,,,,,,,,,,,,,,3,4,0,0,1,1,1,,,,,,,,,,,,,0,12,12,12,,,,,,,,,,,,,,,,,,,,,,,,,,,,,,,,,,,,,,,,,,,,,,,,,,,,,,,,,,,,,,,,,94.30044687498594,94.38241666700924,94.38241666700924,94.38241666700924,94.47889795800438,94.47889795800438,94.47889795800438,94.50795695796842,None,0,94.50795695796842,94.50795695796842,94.50795695796842,94.50795695796842,94.60784979199525,94.60784979199525,94.60784979199525,94.60784979199525,94.60784979199525,94.60784979199525,94.60784979199525,94.60784979199525,94.76964929199312,94.76964929199312,94.76964929199312,94.76964929199312,,,,,testl,2023-06-23_19h20.04.187,Pattern_1,2022.2.4,None,
slf12.xlsx,obs12.xlsx,test12.xlsx,,,,,,,,,,,,,,3,1,1,0,1,1,1,,,,,,,,,,,,,0,13,13,13,,,,,,,,,,,,,,,,,,,,,,,,,,,,,,,,,,,,,,,,,,,,,,,,,,,,,,,,,,,,,,,,,94.76964929199312,94.8489612499834,94.8489612499834,94.8489612499834,94.94580441695871,94.94580441695871,94.94580441695871,94.97655241697794,None,0,94.97655241697794,94.97655241697794,94.97655241697794,94.97655241697794,95.0768108330085,95.0768108330085,95.0768108330085,95.0768108330085,95.0768108330085,95.0768108330085,95.0768108330085,95.0768108330085,95.23714904196095,95.23714904196095,95.23714904196095,95.23714904196095,,,,,testl,2023-06-23_19h20.04.187,Pattern_1,2022.2.4,None,
slf12.xlsx,obs12.xlsx,test12.xlsx,,,,,,,,,,,,,,3,3,2,0,1,1,1,,,,,,,,,,,,,0,14,14,14,,,,,,,,,,,,,,,,,,,,,,,,,,,,,,,,,,,,,,,,,,,,,,,,,,,,,,,,,,,,,,,,,95.23714904196095,95.31563562498195,95.31563562498195,95.31563562498195,95.4122063749819,95.4122063749819,95.4122063749819,95.44233529199846,None,0,95.44233529199846,95.44233529199846,95.44233529199846,95.44233529199846,95.54335066699423,95.54335066699423,95.54335066699423,95.54335066699423,95.54335066699423,95.54335066699423,95.54335066699423,95.54335066699423,95.70434845797718,95.70434845797718,95.70434845797718,95.70434845797718,,,,,testl,2023-06-23_19h20.04.187,Pattern_1,2022.2.4,None,
slf12.xlsx,obs12.xlsx,test12.xlsx,,,,,,,,,,,,,,3,1,2,0,1,1,1,,,,,,,,,,,,,0,15,15,15,,,,,,,,,,,,,,,,,,,,,,,,,,,,,,,,,,,,,,,,,,,,,,,,,,,,,,,,,,,,,,,,,95.70434845797718,95.78244224999798,95.78244224999798,95.78244224999798,95.87893437495222,95.87893437495222,95.87893437495222,95.90796008298639,None,0,95.90796008298639,95.90796008298639,95.90796008298639,95.90796008298639,96.00839712499874,96.00839712499874,96.00839712499874,96.00839712499874,96.00839712499874,96.00839712499874,96.00839712499874,96.00839712499874,96.17175045795739,96.17175045795739,96.17175045795739,96.17175045795739,,,,,testl,2023-06-23_19h20.04.187,Pattern_1,2022.2.4,None,
slf12.xlsx,obs12.xlsx,test12.xlsx,,,,,,,,,,,,,,3,5,0,0,1,1,1,,,,,,,,,,,,,0,16,16,16,,,,,,,,,,,,,,,,,,,,,,,,,,,,,,,,,,,,,,,,,,,,,,,,,,,,,,,,,,,,,,,,,96.17175045795739,96.24944012495689,96.24944012495689,96.24944012495689,96.3456457919674,96.3456457919674,96.3456457919674,96.37663383298786,None,0,96.37663383298786,96.37663383298786,96.37663383298786,96.37663383298786,96.47663470800035,96.47663470800035,96.47663470800035,96.47663470800035,96.47663470800035,96.47663470800035,96.47663470800035,96.47663470800035,96.6385558329639,96.6385558329639,96.6385558329639,96.6385558329639,,,,,testl,2023-06-23_19h20.04.187,Pattern_1,2022.2.4,None,
slf12.xlsx,obs12.xlsx,test12.xlsx,,,,,,,,,,,,,,3,2,1,0,1,1,1,,,,,,,,,,,,,0,17,17,17,,,,,,,,,,,,,,,,,,,,,,,,,,,,,,,,,,,,,,,,,,,,,,,,,,,,,,,,,,,,,,,,,96.6385558329639,96.71589929197216,96.71589929197216,96.71589929197216,96.81218133296352,96.81218133296352,96.81218133296352,96.84317295800429,None,0,96.84317295800429,96.84317295800429,96.84317295800429,96.84317295800429,96.94292895798571,96.94292895798571,96.94292895798571,96.94292895798571,96.94292895798571,96.94292895798571,96.94292895798571,96.94292895798571,97.17253295797855,97.17253295797855,97.17253295797855,97.17253295797855,,,,,testl,2023-06-23_19h20.04.187,Pattern_1,2022.2.4,None,
slf12.xlsx,obs12.xlsx,test12.xlsx,,,,,,,,,,,,,,3,3,1,0,1,1,1,,,,,,,,,,,,,0,18,18,18,,,,,,,,,,,,,,,,,,,,,,,,,,,,,,,,,,,,,,,,,,,,,,,,,,,,,,,,,,,,,,,,,97.17253295797855,97.24885524995625,97.24885524995625,97.24885524995625,97.3456307919696,97.3456307919696,97.3456307919696,97.37388666695915,None,0,97.37388666695915,97.37388666695915,97.37388666695915,97.37388666695915,97.47400774998823,97.47400774998823,97.47400774998823,97.47400774998823,97.47400774998823,97.47400774998823,97.47400774998823,97.47400774998823,97.63921991700772,97.63921991700772,97.63921991700772,97.63921991700772,,,,,testl,2023-06-23_19h20.04.187,Pattern_1,2022.2.4,None,
slf12.xlsx,obs12.xlsx,test12.xlsx,,,,,,,,,,,,,,3,2,2,0,1,1,1,,,,,,,,,,,,,0,19,19,19,,,,,,,,,,,,,,,,,,,,,,,,,,,,,,,,,,,,,,,,,,,,,,,,,,,,,,,,,,,,,,,,,97.63921991700772,97.71598029200686,97.71598029200686,97.71598029200686,97.81217537500197,97.81217537500197,97.81217537500197,97.84250704199076,None,0,97.84250704199076,97.84250704199076,97.84250704199076,97.84250704199076,97.94254866696429,97.94254866696429,97.94254866696429,97.94254866696429,97.94254866696429,97.94254866696429,97.94254866696429,97.94254866696429,98.1078649580013,98.1078649580013,98.1078649580013,98.1078649580013,,,,,testl,2023-06-23_19h20.04.187,Pattern_1,2022.2.4,None,
slf12.xlsx,obs12.xlsx,test12.xlsx,,,,,,,,,,,,,,3,6,0,0,1,1,1,,,,,,,,,,,,,0,20,20,20,,,,,,,,,,,,,,,,,,,,,,,,,,,,,,,,,,,,,,,,,,,,,,,,,,,,,,,,,,,,,,,,,98.1078649580013,98.18257533299038,98.18257533299038,98.18257533299038,98.27881399996113,98.27881399996113,98.27881399996113,98.30815741699189,None,0,98.30815741699189,98.30815741699189,98.30815741699189,98.30815741699189,98.40870562498458,98.40870562498458,98.40870562498458,98.40870562498458,98.40870562498458,98.40870562498458,98.40870562498458,98.40870562498458,98.57207900000503,98.57207900000503,98.57207900000503,98.57207900000503,,,,,testl,2023-06-23_19h20.04.187,Pattern_1,2022.2.4,None,
slf12.xlsx,obs12.xlsx,test12.xlsx,,,,,,,,,,,,,,4,4,0,0,1,1,1,,,,,,,,,,,,,0,21,21,21,,,,,,,,,,,,,,,,,,,,,,,,,,,,,,,,,,,,,,,,,,,,,,,,,,,,,,,,,,,,,,,,,98.57207900000503,98.65044387499802,98.65044387499802,98.65044387499802,98.7454917919822,98.7454917919822,98.7454917919822,98.77413108298788,None,0,98.77413108298788,98.77413108298788,98.77413108298788,98.77413108298788,98.87466716696508,98.87466716696508,98.87466716696508,98.87466716696508,98.87466716696508,98.87466716696508,98.87466716696508,98.87466716696508,99.03999999997905,99.03999999997905,99.03999999997905,99.03999999997905,,,,,testl,2023-06-23_19h20.04.187,Pattern_1,2022.2.4,None,
slf12.xlsx,obs12.xlsx,test12.xlsx,,,,,,,,,,,,,,4,1,1,0,1,1,1,,,,,,,,,,,,,0,22,22,22,,,,,,,,,,,,,,,,,,,,,,,,,,,,,,,,,,,,,,,,,,,,,,,,,,,,,,,,,,,,,,,,,99.03999999997905,99.1165154579794,99.1165154579794,99.1165154579794,99.21218549995683,99.21218549995683,99.21218549995683,99.24104925000574,None,0,99.24104925000574,99.24104925000574,99.24104925000574,99.24104925000574,99.34175370796584,99.34175370796584,99.34175370796584,99.34175370796584,99.34175370796584,99.34175370796584,99.34175370796584,99.34175370796584,99.50657008297276,99.50657008297276,99.50657008297276,99.50657008297276,,,,,testl,2023-06-23_19h20.04.187,Pattern_1,2022.2.4,None,
slf12.xlsx,obs12.xlsx,test12.xlsx,,,,,,,,,,,,,,4,3,2,0,1,1,1,,,,,,,,,,,,,0,23,23,23,,,,,,,,,,,,,,,,,,,,,,,,,,,,,,,,,,,,,,,,,,,,,,,,,,,,,,,,,,,,,,,,,99.50657008297276,99.58254266699078,99.58254266699078,99.58254266699078,99.67882187495707,99.67882187495707,99.67882187495707,99.70669795799768,None,0,99.70669795799768,99.70669795799768,99.70669795799768,99.70669795799768,99.80720716697397,99.80720716697397,99.80720716697397,99.80720716697397,99.80720716697397,99.80720716697397,99.80720716697397,99.80720716697397,99.97686470800545,99.97686470800545,99.97686470800545,99.97686470800545,,,,,testl,2023-06-23_19h20.04.187,Pattern_1,2022.2.4,None,
slf12.xlsx,obs12.xlsx,test12.xlsx,,,,,,,,,,,,,,4,1,2,0,1,1,1,,,,,,,,,,,,,0,24,24,24,,,,,,,,,,,,,,,,,,,,,,,,,,,,,,,,,,,,,,,,,,,,,,,,,,,,,,,,,,,,,,,,,99.97686470800545,100.06215804198291,100.06215804198291,100.06215804198291,100.14893491700059,100.14893491700059,100.14893491700059,100.17613258300116,None,0,100.17613258300116,100.17613258300116,100.17613258300116,100.17613258300116,100.27632479200838,100.27632479200838,100.27632479200838,100.27632479200838,100.27632479200838,100.27632479200838,100.27632479200838,100.27632479200838,100.44462962500984,100.44462962500984,100.44462962500984,100.44462962500984,,,,,testl,2023-06-23_19h20.04.187,Pattern_1,2022.2.4,None,
slf12.xlsx,obs12.xlsx,test12.xlsx,,,,,,,,,,,,,,4,5,0,0,1,1,1,,,,,,,,,,,,,0,25,25,25,,,,,,,,,,,,,,,,,,,,,,,,,,,,,,,,,,,,,,,,,,,,,,,,,,,,,,,,,,,,,,,,,100.44462962500984,100.52882999996655,100.52882999996655,100.52882999996655,100.61578875000123,100.61578875000123,100.61578875000123,100.6430951670045,None,0,100.6430951670045,100.6430951670045,100.6430951670045,100.6430951670045,100.74344483297318,100.74344483297318,100.74344483297318,100.74344483297318,100.74344483297318,100.74344483297318,100.74344483297318,100.74344483297318,100.9097475829767,100.9097475829767,100.9097475829767,100.9097475829767,,,,,testl,2023-06-23_19h20.04.187,Pattern_1,2022.2.4,None,
slf12.xlsx,obs12.xlsx,test12.xlsx,,,,,,,,,,,,,,4,2,1,0,1,1,1,,,,,,,,,,,,,0,26,26,26,,,,,,,,,,,,,,,,,,,,,,,,,,,,,,,,,,,,,,,,,,,,,,,,,,,,,,,,,,,,,,,,,100.9097475829767,100.99549358297372,100.99549358297372,100.99549358297372,101.08210233296268,101.08210233296268,101.08210233296268,101.10893149999902,None,0,101.10893149999902,101.10893149999902,101.10893149999902,101.10893149999902,101.20908383297501,101.20908383297501,101.20908383297501,101.20908383297501,101.20908383297501,101.20908383297501,101.20908383297501,101.20908383297501,101.37709033297142,101.37709033297142,101.37709033297142,101.37709033297142,,,,,testl,2023-06-23_19h20.04.187,Pattern_1,2022.2.4,None,
slf12.xlsx,obs12.xlsx,test12.xlsx,,,,,,,,,,,,,,4,3,1,0,1,1,1,,,,,,,,,,,,,0,27,27,27,,,,,,,,,,,,,,,,,,,,,,,,,,,,,,,,,,,,,,,,,,,,,,,,,,,,,,,,,,,,,,,,,101.37709033297142,101.46228520799195,101.46228520799195,101.46228520799195,101.54895324999234,101.54895324999234,101.54895324999234,101.57589437498245,None,0,101.57589437498245,101.57589437498245,101.57589437498245,101.57589437498245,101.67587354197167,101.67587354197167,101.67587354197167,101.67587354197167,101.67587354197167,101.67587354197167,101.67587354197167,101.67587354197167,101.84470308298478,101.84470308298478,101.84470308298478,101.84470308298478,,,,,testl,2023-06-23_19h20.04.187,Pattern_1,2022.2.4,None,
slf12.xlsx,obs12.xlsx,test12.xlsx,,,,,,,,,,,,,,4,2,2,0,1,1,1,,,,,,,,,,,,,0,28,28,28,,,,,,,,,,,,,,,,,,,,,,,,,,,,,,,,,,,,,,,,,,,,,,,,,,,,,,,,,,,,,,,,,101.84470308298478,101.92881774995476,101.92881774995476,101.92881774995476,102.01548570796149,102.01548570796149,102.01548570796149,102.04251908295555,None,0,102.04251908295555,102.04251908295555,102.04251908295555,102.04251908295555,102.14276012498885,102.14276012498885,102.14276012498885,102.14276012498885,102.14276012498885,102.14276012498885,102.14276012498885,102.14276012498885,102.38009599997895,102.38009599997895,102.38009599997895,102.38009599997895,,,,,testl,2023-06-23_19h20.04.187,Pattern_1,2022.2.4,None,
slf12.xlsx,obs12.xlsx,test12.xlsx,,,,,,,,,,,,,,4,6,0,0,1,1,1,,,,,,,,,,,,,0,29,29,29,,,,,,,,,,,,,,,,,,,,,,,,,,,,,,,,,,,,,,,,,,,,,,,,,,,,,,,,,,,,,,,,,102.38009599997895,102.4659087919863,102.4659087919863,102.4659087919863,102.56215504196007,102.56215504196007,102.56215504196007,102.57868558296468,None,0,102.57868558296468,102.57868558296468,102.57868558296468,102.57868558296468,102.67537299997639,102.67537299997639,102.67537299997639,102.67537299997639,102.67537299997639,102.67537299997639,102.67537299997639,102.67537299997639,102.88635870796861,102.88635870796861,102.88635870796861,102.88635870796861,,,,,testl,2023-06-23_19h20.04.187,Pattern_1,2022.2.4,None,
slf12.xlsx,obs12.xlsx,test12.xlsx,,,,,,,,,,,,,,,,,0,1,1,1,,,,,,,,,,,,,,,,,,,,,,,,,,,,,,,,,,,,,,,,,,,,,,,,,,,,,,,,,,,,,,,,,,,,,,,,,,,,,,,,,,,,,,,,,,,,,,,,,,,,,,,,,,,102.88635870796861,102.88635870796861,space,4.2227159989997745,testl,2023-06-23_19h20.04.187,Pattern_1,2022.2.4,None,
slf13.xlsx,obs13.xlsx,test13.xlsx,0,1,2,40,30,,,,,,,,,,,,0,2,2,2,0,0,0,0,,,,,,,,,,,,,,,,,,,,,110.11741649999749,112.13388520799344,112.13388520799344,112.21208741696319,112.21208741696319,112.21208741696319,112.29862458299613,112.29862458299613,112.29862458299613,112.34273124998435,None,0,112.34273124998435,112.34273124998435,112.34273124998435,112.34273124998435,112.44250841700705,112.44250841700705,112.44250841700705,112.44250841700705,112.44250841700705,112.44250841700705,112.44250841700705,112.44250841700705,112.61260591697646,112.61260591697646,112.61260591697646,112.61260591697646,,,,,,,,,,,,,,,,,,,,,,,,,,,,,,,,,,,,,,,,,,,,,,,,,,,,,,,,,,,testl,2023-06-23_19h20.04.187,Pattern_1,2022.2.4,None,
slf13.xlsx,obs13.xlsx,test13.xlsx,0,2,1,40,50,,,,,,,,,,,,0,2,2,2,0,1,1,1,,,,,,,,,,,,,,,,,,,,,,,112.61260591697646,112.6953550829785,112.6953550829785,112.6953550829785,112.78234462498222,112.78234462498222,112.78234462498222,112.80815258296207,None,0,112.80815258296207,112.80815258296207,112.80815258296207,112.80815258296207,112.90826629195362,112.90826629195362,112.90826629195362,112.90826629195362,112.90826629195362,112.90826629195362,112.90826629195362,112.90826629195362,113.08413616695907,113.08413616695907,113.08413616695907,113.08413616695907,,,,,,,,,,,,,,,,,,,,,,,,,,,,,,,,,,,,,,,,,,,,,,,,,,,,,,,,,,,testl,2023-06-23_19h20.04.187,Pattern_1,2022.2.4,None,
slf13.xlsx,obs13.xlsx,test13.xlsx,0,3,2,30,50,,,,,,,,,,,,0,2,2,2,0,2,2,2,,,,,,,,,,,,,,,,,,,,,,,113.08413616695907,113.16206004197011,113.16206004197011,113.16206004197011,113.24954591697315,113.24954591697315,113.24954591697315,113.28283199999714,None,0,113.28283199999714,113.28283199999714,113.28283199999714,113.28283199999714,113.38327237498015,113.38327237498015,113.38327237498015,113.38327237498015,113.38327237498015,113.38327237498015,113.38327237498015,113.38327237498015,113.55054833297618,113.55054833297618,113.55054833297618,113.55054833297618,,,,,,,,,,,,,,,,,,,,,,,,,,,,,,,,,,,,,,,,,,,,,,,,,,,,,,,,,,,testl,2023-06-23_19h20.04.187,Pattern_1,2022.2.4,None,
slf13.xlsx,obs13.xlsx,test13.xlsx,0,2,2,50,40,,,,,,,,,,,,0,2,2,2,0,3,3,3,,,,,,,,,,,,,,,,,,,,,,,113.55054833297618,113.63277070800541,113.63277070800541,113.63277070800541,113.7288805419812,113.7288805419812,113.7288805419812,113.74984249996487,None,0,113.74984249996487,113.74984249996487,113.74984249996487,113.74984249996487,113.84874137496809,113.84874137496809,113.84874137496809,113.84874137496809,113.84874137496809,113.84874137496809,113.84874137496809,113.84874137496809,114.0187421249575,114.0187421249575,114.0187421249575,114.0187421249575,,,,,,,,,,,,,,,,,,,,,,,,,,,,,,,,,,,,,,,,,,,,,,,,,,,,,,,,,,,testl,2023-06-23_19h20.04.187,Pattern_1,2022.2.4,None,
slf13.xlsx,obs13.xlsx,test13.xlsx,0,1,1,30,40,,,,,,,,,,,,0,2,2,2,0,4,4,4,,,,,,,,,,,,,,,,,,,,,,,114.0187421249575,114.09967762499582,114.09967762499582,114.09967762499582,114.19547049998073,114.19547049998073,114.19547049998073,114.22531033295672,None,0,114.22531033295672,114.22531033295672,114.22531033295672,114.22531033295672,114.32566974998917,114.32566974998917,114.32566974998917,114.32566974998917,114.32566974998917,114.32566974998917,114.32566974998917,114.32566974998917,114.49912058300106,114.49912058300106,114.49912058300106,114.49912058300106,,,,,,,,,,,,,,,,,,,,,,,,,,,,,,,,,,,,,,,,,,,,,,,,,,,,,,,,,,,testl,2023-06-23_19h20.04.187,Pattern_1,2022.2.4,None,
slf13.xlsx,obs13.xlsx,test13.xlsx,0,3,1,50,30,,,,,,,,,,,,0,2,2,2,0,5,5,5,,,,,,,,,,,,,,,,,,,,,,,114.49912058300106,114.58316454198211,114.58316454198211,114.58316454198211,114.67873104196042,114.67873104196042,114.67873104196042,114.71218995796517,None,0,114.71218995796517,114.71218995796517,114.71218995796517,114.71218995796517,114.80819416698068,114.80819416698068,114.80819416698068,114.80819416698068,114.80819416698068,114.80819416698068,114.80819416698068,114.80819416698068,114.982881874952,114.982881874952,114.982881874952,114.982881874952,,,,,,,,,,,,,,,,,,,,,,,,,,,,,,,,,,,,,,,,,,,,,,,,,,,,,,,,,,,testl,2023-06-23_19h20.04.187,Pattern_1,2022.2.4,None,
slf13.xlsx,obs13.xlsx,test13.xlsx,0,1,2,40,30,,,,,,,,,,,,0,2,2,2,0,6,6,6,,,,,,,,,,,,,,,,,,,,,,,114.982881874952,115.06644258298911,115.06644258298911,115.06644258298911,115.1620817919611,115.1620817919611,115.1620817919611,115.18314449995523,None,0,115.18314449995523,115.18314449995523,115.18314449995523,115.18314449995523,115.28221129195299,115.28221129195299,115.28221129195299,115.28221129195299,115.28221129195299,115.28221129195299,115.28221129195299,115.28221129195299,115.45187654200708,115.45187654200708,115.45187654200708,115.45187654200708,,,,,,,,,,,,,,,,,,,,,,,,,,,,,,,,,,,,,,,,,,,,,,,,,,,,,,,,,,,testl,2023-06-23_19h20.04.187,Pattern_1,2022.2.4,None,
slf13.xlsx,obs13.xlsx,test13.xlsx,0,3,2,30,50,,,,,,,,,,,,0,2,2,2,0,7,7,7,,,,,,,,,,,,,,,,,,,,,,,115.45187654200708,115.53276220796397,115.53276220796397,115.53276220796397,115.62878491700394,115.62878491700394,115.62878491700394,115.65798237500712,None,0,115.65798237500712,115.65798237500712,115.65798237500712,115.65798237500712,115.75843420799356,115.75843420799356,115.75843420799356,115.75843420799356,115.75843420799356,115.75843420799356,115.75843420799356,115.75843420799356,116.00037304195575,116.00037304195575,116.00037304195575,116.00037304195575,,,,,,,,,,,,,,,,,,,,,,,,,,,,,,,,,,,,,,,,,,,,,,,,,,,,,,,,,,,testl,2023-06-23_19h20.04.187,Pattern_1,2022.2.4,None,
slf13.xlsx,obs13.xlsx,test13.xlsx,0,2,1,40,50,,,,,,,,,,,,0,2,2,2,0,8,8,8,,,,,,,,,,,,,,,,,,,,,,,116.00037304195575,116.08279366698116,116.08279366698116,116.08279366698116,116.1787389999954,116.1787389999954,116.1787389999954,116.20800737495301,None,0,116.20800737495301,116.20800737495301,116.20800737495301,116.20800737495301,116.30858416698175,116.30858416698175,116.30858416698175,116.30858416698175,116.30858416698175,116.30858416698175,116.30858416698175,116.30858416698175,116.483395291958,116.483395291958,116.483395291958,116.483395291958,,,,,,,,,,,,,,,,,,,,,,,,,,,,,,,,,,,,,,,,,,,,,,,,,,,,,,,,,,,testl,2023-06-23_19h20.04.187,Pattern_1,2022.2.4,None,
slf13.xlsx,obs13.xlsx,test13.xlsx,None,None,None,None,None,,,,,,,,,,,,0,2,2,2,0,9,9,9,,,,,,,,,,,,,,,,,,,,,,,116.483395291958,116.56562549999217,116.56562549999217,116.56562549999217,116.66205345798517,116.66205345798517,116.66205345798517,116.69146841700422,None,0,116.69146841700422,116.69146841700422,116.69146841700422,116.69146841700422,116.79258999996819,116.79258999996819,116.79258999996819,116.79258999996819,116.79258999996819,116.79258999996819,116.79258999996819,116.79258999996819,116.9670336249983,116.9670336249983,116.9670336249983,116.9670336249983,,,,,,,,,,,,,,,,,,,,,,,,,,,,,,,,,,,,,,,,,,,,,,,,,,,,,,,,,,,testl,2023-06-23_19h20.04.187,Pattern_1,2022.2.4,None,
slf13.xlsx,obs13.xlsx,test13.xlsx,None,None,None,None,None,,,,,,,,,,,,0,2,2,2,0,10,10,10,,,,,,,,,,,,,,,,,,,,,,,116.9670336249983,117.04873029200826,117.04873029200826,117.04873029200826,117.145449041971,117.145449041971,117.145449041971,117.17487879196415,None,0,117.17487879196415,117.17487879196415,117.17487879196415,117.17487879196415,117.27511724998476,117.27511724998476,117.27511724998476,117.27511724998476,117.27511724998476,117.27511724998476,117.27511724998476,117.27511724998476,117.45082416699734,117.45082416699734,117.45082416699734,117.45082416699734,,,,,,,,,,,,,,,,,,,,,,,,,,,,,,,,,,,,,,,,,,,,,,,,,,,,,,,,,,,testl,2023-06-23_19h20.04.187,Pattern_1,2022.2.4,None,
slf13.xlsx,obs13.xlsx,test13.xlsx,None,None,None,None,None,,,,,,,,,,,,0,2,2,2,0,11,11,11,,,,,,,,,,,,,,,,,,,,,,,117.45082416699734,117.53228337498149,117.53228337498149,117.53228337498149,117.62880204198882,117.62880204198882,117.62880204198882,117.6581054169801,None,0,117.6581054169801,117.6581054169801,117.6581054169801,117.6581054169801,117.75837320799474,117.75837320799474,117.75837320799474,117.75837320799474,117.75837320799474,117.75837320799474,117.75837320799474,117.75837320799474,117.97375441697659,117.97375441697659,117.97375441697659,117.97375441697659,,,,,,,,,,,,,,,,,,,,,,,,,,,,,,,,,,,,,,,,,,,,,,,,,,,,,,,,,,,testl,2023-06-23_19h20.04.187,Pattern_1,2022.2.4,None,
slf13.xlsx,obs13.xlsx,test13.xlsx,,,,,,0,1,1,left,low,0,0.5,0.5,,,,0,2,2,2,,,,,,,,,0,0,0,0,,,,,,,,,,,,,,,,,,,,,,,,,,,,,,,,,,,,,,,,,117.97375441697659,119.95204483298585,120.01648395799566,120.01648395799566,120.51588904199889,120.61204254196491,120.61204254196491,120.61204254196491,120.64966312499018,120.64966312499018,120.64966312499018,120.64966312499018,120.64966312499018,120.73305091698421,120.82870720798383,121.25051516696112,121.25051516696112,121.25051516696112,121.25051516696112,121.25051516696112,121.25051516696112,121.25051516696112,121.25051516696112,121.449465166952,121.449465166952,121.449465166952,121.449465166952,,,,,,,,,,,,,,,,,,,,,,,,,,,,,,,,testl,2023-06-23_19h20.04.187,Pattern_1,2022.2.4,None,
slf13.xlsx,obs13.xlsx,test13.xlsx,,,,,,0,2,2,right,high,0,0.5,0.5,,,,0,2,2,2,,,,,,,,,0,1,1,1,,,,,,,,,,,,,,,,,,,,,,,,,,,,,,,,,,,,,,,,,,121.449465166952,121.53226274996996,121.53226274996996,122.03280183300376,122.12872862495715,122.12872862495715,122.12872862495715,122.14536399999633,122.14536399999633,122.14536399999633,122.14536399999633,122.14536399999633,122.2286803330062,122.31641299999319,122.74270166695351,122.74270166695351,122.74270166695351,122.74270166695351,122.74270166695351,122.74270166695351,122.74270166695351,122.74270166695351,122.91969704197254,122.91969704197254,122.91969704197254,122.91969704197254,,,,,,,,,,,,,,,,,,,,,,,,,,,,,,,,testl,2023-06-23_19h20.04.187,Pattern_1,2022.2.4,None,
slf13.xlsx,obs13.xlsx,test13.xlsx,,,,,,0,3,1,left,low,0,0.5,0.5,,,,0,2,2,2,,,,,,,,,0,2,2,2,,,,,,,,,,,,,,,,,,,,,,,,,,,,,,,,,,,,,,,,,,122.91969704197254,122.99958195799263,122.99958195799263,123.50007162499242,123.59535412496189,123.59535412496189,123.59535412496189,123.61545699997805,123.61545699997805,123.61545699997805,123.61545699997805,123.61545699997805,123.69904079200933,123.79538787499769,124.21184891700977,124.21184891700977,124.21184891700977,124.21184891700977,124.21184891700977,124.21184891700977,124.21184891700977,124.21184891700977,124.38789070799248,124.38789070799248,124.38789070799248,124.38789070799248,,,,,,,,,,,,,,,,,,,,,,,,,,,,,,,,testl,2023-06-23_19h20.04.187,Pattern_1,2022.2.4,None,
slf13.xlsx,obs13.xlsx,test13.xlsx,,,,,,0,2,1,right,high,0,0.5,0.5,,,,0,2,2,2,,,,,,,,,0,3,3,3,,,,,,,,,,,,,,,,,,,,,,,,,,,,,,,,,,,,,,,,,,124.38789070799248,124.46555737499148,124.46555737499148,124.96537804196123,125.06204441696173,125.06204441696173,125.06204441696173,125.08257245796267,125.08257245796267,125.08257245796267,125.08257245796267,125.08257245796267,125.16563699999824,125.26198154198937,125.68251541699283,125.68251541699283,125.68251541699283,125.68251541699283,125.68251541699283,125.68251541699283,125.68251541699283,125.68251541699283,125.85824949998641,125.85824949998641,125.85824949998641,125.85824949998641,,,,,,,,,,,,,,,,,,,,,,,,,,,,,,,,testl,2023-06-23_19h20.04.187,Pattern_1,2022.2.4,None,
slf13.xlsx,obs13.xlsx,test13.xlsx,,,,,,0,1,2,left,low,0,0.5,0.5,,,,0,2,2,2,,,,,,,,,0,4,4,4,,,,,,,,,,,,,,,,,,,,,,,,,,,,,,,,,,,,,,,,,,125.85824949998641,125.93219366698759,125.93219366698759,126.43325283296872,126.52866616699612,126.52866616699612,126.52866616699612,126.54959933296777,126.54959933296777,126.54959933296777,126.54959933296777,126.54959933296777,126.63315991696436,126.72865066700615,127.14855337498011,127.14855337498011,127.14855337498011,127.14855337498011,127.14855337498011,127.14855337498011,127.14855337498011,127.14855337498011,127.39919095800724,127.39919095800724,127.39919095800724,127.39919095800724,,,,,,,,,,,,,,,,,,,,,,,,,,,,,,,,testl,2023-06-23_19h20.04.187,Pattern_1,2022.2.4,None,
slf13.xlsx,obs13.xlsx,test13.xlsx,,,,,,0,3,2,right,high,0,0.5,0.5,,,,0,2,2,2,,,,,,,,,0,5,5,5,,,,,,,,,,,,,,,,,,,,,,,,,,,,,,,,,,,,,,,,,,127.39919095800724,127.48293695796747,127.48293695796747,127.98308537498815,128.08218599995598,128.07869075000053,128.07869075000053,128.09531345800497,128.09531345800497,128.09531345800497,128.09531345800497,128.09531345800497,128.1786507499637,128.2654678329709,128.69092529197223,128.69092529197223,128.69092529197223,128.69092529197223,128.69092529197223,128.69092529197223,128.69092529197223,128.69092529197223,128.87200895795831,128.87200895795831,128.87200895795831,128.87200895795831,,,,,,,,,,,,,,,,,,,,,,,,,,,,,,,,testl,2023-06-23_19h20.04.187,Pattern_1,2022.2.4,None,
slf13.xlsx,obs13.xlsx,test13.xlsx,,,,,,0,1,1,left,low,0,0.5,0.5,,,,0,2,2,2,,,,,,,,,0,6,6,6,,,,,,,,,,,,,,,,,,,,,,,,,,,,,,,,,,,,,,,,,,128.87200895795831,128.94876137498068,128.94876137498068,129.44860783300828,129.54537133296253,129.54537133296253,129.54537133296253,129.56511708296603,129.56511708296603,129.56511708296603,129.56511708296603,129.56511708296603,129.64906029199483,129.74533079197863,130.16186616697814,130.16186616697814,130.16186616697814,130.16186616697814,130.16186616697814,130.16186616697814,130.16186616697814,130.16186616697814,130.34010695799952,130.34010695799952,130.34010695799952,130.34010695799952,,,,,,,,,,,,,,,,,,,,,,,,,,,,,,,,testl,2023-06-23_19h20.04.187,Pattern_1,2022.2.4,None,
slf13.xlsx,obs13.xlsx,test13.xlsx,,,,,,0,3,1,right,high,0,0.5,0.5,,,,0,2,2,2,,,,,,,,,0,7,7,7,,,,,,,,,,,,,,,,,,,,,,,,,,,,,,,,,,,,,,,,,,130.34010695799952,130.41599137498997,130.41599137498997,130.91560166695854,131.01199716696283,131.01199716696283,131.01199716696283,131.03245624998817,131.03245624998817,131.03245624998817,131.03245624998817,131.03245624998817,131.1159504999523,131.21198733296478,131.62842312495923,131.62842312495923,131.62842312495923,131.62842312495923,131.62842312495923,131.62842312495923,131.62842312495923,131.62842312495923,131.80771129200002,131.80771129200002,131.80771129200002,131.80771129200002,,,,,,,,,,,,,,,,,,,,,,,,,,,,,,,,testl,2023-06-23_19h20.04.187,Pattern_1,2022.2.4,None,
slf13.xlsx,obs13.xlsx,test13.xlsx,,,,,,0,2,2,left,low,0,0.5,0.5,,,,0,2,2,2,,,,,,,,,0,8,8,8,,,,,,,,,,,,,,,,,,,,,,,,,,,,,,,,,,,,,,,,,,131.80771129200002,131.88221541699022,131.88221541699022,132.383187874977,132.47861762496177,132.47861762496177,132.47861762496177,132.4989586249576,132.4989586249576,132.4989586249576,132.4989586249576,132.4989586249576,132.58281037496636,132.67867429199396,133.09953570796642,133.09953570796642,133.09953570796642,133.09953570796642,133.09953570796642,133.09953570796642,133.09953570796642,133.09953570796642,133.31588983297115,133.31588983297115,133.31588983297115,133.31588983297115,,,,,,,,,,,,,,,,,,,,,,,,,,,,,,,,testl,2023-06-23_19h20.04.187,Pattern_1,2022.2.4,None,
slf13.xlsx,obs13.xlsx,test13.xlsx,,,,,,,,,,,,,,1,1,1,0,2,2,2,,,,,,,,,,,,,0,0,0,0,,,,,,,,,,,,,,,,,,,,,,,,,,,,,,,,,,,,,,,,,,,,,,,,,,,,,,,,,,,,,,,,133.31588983297115,135.28911808296107,135.36195970798144,135.36195970798144,135.36195970798144,135.44948812498478,135.44948812498478,135.44948812498478,135.4924704579753,None,0,135.4924704579753,135.4924704579753,135.4924704579753,135.4924704579753,135.5924126249738,135.5924126249738,135.5924126249738,135.5924126249738,135.5924126249738,135.5924126249738,135.5924126249738,135.5924126249738,135.77505295799347,135.77505295799347,135.77505295799347,135.77505295799347,,,,,testl,2023-06-23_19h20.04.187,Pattern_1,2022.2.4,None,
slf13.xlsx,obs13.xlsx,test13.xlsx,,,,,,,,,,,,,,1,1,2,0,2,2,2,,,,,,,,,,,,,0,1,1,1,,,,,,,,,,,,,,,,,,,,,,,,,,,,,,,,,,,,,,,,,,,,,,,,,,,,,,,,,,,,,,,,,135.77505295799347,135.85039608296938,135.85039608296938,135.85039608296938,135.94539408298442,135.94539408298442,135.94539408298442,135.97603637498105,None,0,135.97603637498105,135.97603637498105,135.97603637498105,135.97603637498105,136.07873949996429,136.07873949996429,136.07873949996429,136.07873949996429,136.07873949996429,136.07873949996429,136.07873949996429,136.07873949996429,136.2709482499631,136.2709482499631,136.2709482499631,136.2709482499631,,,,,testl,2023-06-23_19h20.04.187,Pattern_1,2022.2.4,None,
slf13.xlsx,obs13.xlsx,test13.xlsx,,,,,,,,,,,,,,1,2,1,0,2,2,2,,,,,,,,,,,,,0,2,2,2,,,,,,,,,,,,,,,,,,,,,,,,,,,,,,,,,,,,,,,,,,,,,,,,,,,,,,,,,,,,,,,,,136.2709482499631,136.34989391698036,136.34989391698036,136.34989391698036,136.44529766699998,136.44529766699998,136.44529766699998,136.47511370800203,None,0,136.47511370800203,136.47511370800203,136.47511370800203,136.47511370800203,136.57528183300747,136.57528183300747,136.57528183300747,136.57528183300747,136.57528183300747,136.57528183300747,136.57528183300747,136.57528183300747,136.75822037499165,136.75822037499165,136.75822037499165,136.75822037499165,,,,,testl,2023-06-23_19h20.04.187,Pattern_1,2022.2.4,None,
slf13.xlsx,obs13.xlsx,test13.xlsx,,,,,,,,,,,,,,1,2,2,0,2,2,2,,,,,,,,,,,,,0,3,3,3,,,,,,,,,,,,,,,,,,,,,,,,,,,,,,,,,,,,,,,,,,,,,,,,,,,,,,,,,,,,,,,,,136.75822037499165,136.84526787500363,136.84526787500363,136.84526787500363,136.93224774999544,136.93224774999544,136.93224774999544,136.95795133296633,None,0,136.95795133296633,136.95795133296633,136.95795133296633,136.95795133296633,137.0583253329969,137.0583253329969,137.0583253329969,137.0583253329969,137.0583253329969,137.0583253329969,137.0583253329969,137.0583253329969,137.31515033298638,137.31515033298638,137.31515033298638,137.31515033298638,,,,,testl,2023-06-23_19h20.04.187,Pattern_1,2022.2.4,None,
slf13.xlsx,obs13.xlsx,test13.xlsx,,,,,,,,,,,,,,1,3,1,0,2,2,2,,,,,,,,,,,,,0,4,4,4,,,,,,,,,,,,,,,,,,,,,,,,,,,,,,,,,,,,,,,,,,,,,,,,,,,,,,,,,,,,,,,,,137.31515033298638,137.3992689169827,137.3992689169827,137.3992689169827,137.4952167919837,137.4952167919837,137.4952167919837,137.51172008295543,None,0,137.51172008295543,137.51172008295543,137.51172008295543,137.51172008295543,137.60802183300257,137.60802183300257,137.60802183300257,137.60802183300257,137.60802183300257,137.60802183300257,137.60802183300257,137.60802183300257,137.79253120796056,137.79253120796056,137.79253120796056,137.79253120796056,,,,,testl,2023-06-23_19h20.04.187,Pattern_1,2022.2.4,None,
slf13.xlsx,obs13.xlsx,test13.xlsx,,,,,,,,,,,,,,1,3,2,0,2,2,2,,,,,,,,,,,,,0,5,5,5,,,,,,,,,,,,,,,,,,,,,,,,,,,,,,,,,,,,,,,,,,,,,,,,,,,,,,,,,,,,,,,,,137.79253120796056,137.87861620797776,137.87861620797776,137.87861620797776,137.96607512497576,137.96607512497576,137.96607512497576,137.9909768329817,None,0,137.9909768329817,137.9909768329817,137.9909768329817,137.9909768329817,138.09130479197484,138.09130479197484,138.09130479197484,138.09130479197484,138.09130479197484,138.09130479197484,138.09130479197484,138.09130479197484,138.27720308298012,138.27720308298012,138.27720308298012,138.27720308298012,,,,,testl,2023-06-23_19h20.04.187,Pattern_1,2022.2.4,None,
slf13.xlsx,obs13.xlsx,test13.xlsx,,,,,,,,,,,,,,2,1,1,0,2,2,2,,,,,,,,,,,,,0,6,6,6,,,,,,,,,,,,,,,,,,,,,,,,,,,,,,,,,,,,,,,,,,,,,,,,,,,,,,,,,,,,,,,,,138.27720308298012,138.36190524999984,138.36190524999984,138.36190524999984,138.44929758296348,138.44929758296348,138.44929758296348,138.47483199997805,None,0,138.47483199997805,138.47483199997805,138.47483199997805,138.47483199997805,138.57500520796748,138.57500520796748,138.57500520796748,138.57500520796748,138.57500520796748,138.57500520796748,138.57500520796748,138.57500520796748,138.76152929197997,138.76152929197997,138.76152929197997,138.76152929197997,,,,,testl,2023-06-23_19h20.04.187,Pattern_1,2022.2.4,None,
slf13.xlsx,obs13.xlsx,test13.xlsx,,,,,,,,,,,,,,2,1,2,0,2,2,2,,,,,,,,,,,,,0,7,7,7,,,,,,,,,,,,,,,,,,,,,,,,,,,,,,,,,,,,,,,,,,,,,,,,,,,,,,,,,,,,,,,,,138.76152929197997,138.84527299995534,138.84527299995534,138.84527299995534,138.93228770798305,138.93228770798305,138.93228770798305,138.957990875002,None,0,138.957990875002,138.957990875002,138.957990875002,138.957990875002,139.05825320800068,139.05825320800068,139.05825320800068,139.05825320800068,139.05825320800068,139.05825320800068,139.05825320800068,139.05825320800068,139.24917358299717,139.24917358299717,139.24917358299717,139.24917358299717,,,,,testl,2023-06-23_19h20.04.187,Pattern_1,2022.2.4,None,
slf13.xlsx,obs13.xlsx,test13.xlsx,,,,,,,,,,,,,,2,2,1,0,2,2,2,,,,,,,,,,,,,0,8,8,8,,,,,,,,,,,,,,,,,,,,,,,,,,,,,,,,,,,,,,,,,,,,,,,,,,,,,,,,,,,,,,,,,139.24917358299717,139.328554000007,139.328554000007,139.328554000007,139.41416545800166,139.41416545800166,139.41416545800166,139.44860841700574,None,0,139.44860841700574,139.44860841700574,139.44860841700574,139.44860841700574,139.54904516699025,139.54904516699025,139.54904516699025,139.54904516699025,139.54904516699025,139.54904516699025,139.54904516699025,139.54904516699025,139.73398329195334,139.73398329195334,139.73398329195334,139.73398329195334,,,,,testl,2023-06-23_19h20.04.187,Pattern_1,2022.2.4,None,
slf13.xlsx,obs13.xlsx,test13.xlsx,,,,,,,,,,,,,,2,2,2,0,2,2,2,,,,,,,,,,,,,0,9,9,9,,,,,,,,,,,,,,,,,,,,,,,,,,,,,,,,,,,,,,,,,,,,,,,,,,,,,,,,,,,,,,,,,139.73398329195334,139.815487749991,139.815487749991,139.815487749991,139.9118994579767,139.9118994579767,139.9118994579767,139.94282116700197,None,0,139.94282116700197,139.94282116700197,139.94282116700197,139.94282116700197,140.0431479169638,140.0431479169638,140.0431479169638,140.0431479169638,140.0431479169638,140.0431479169638,140.0431479169638,140.0431479169638,140.2284017080092,140.2284017080092,140.2284017080092,140.2284017080092,,,,,testl,2023-06-23_19h20.04.187,Pattern_1,2022.2.4,None,
slf13.xlsx,obs13.xlsx,test13.xlsx,,,,,,,,,,,,,,2,3,1,0,2,2,2,,,,,,,,,,,,,0,10,10,10,,,,,,,,,,,,,,,,,,,,,,,,,,,,,,,,,,,,,,,,,,,,,,,,,,,,,,,,,,,,,,,,,140.2284017080092,140.3153539999621,140.3153539999621,140.3153539999621,140.41189920797478,140.41189920797478,140.41189920797478,140.42416724999202,None,0,140.42416724999202,140.42416724999202,140.42416724999202,140.42416724999202,140.52431887498824,140.52431887498824,140.52431887498824,140.52431887498824,140.52431887498824,140.52431887498824,140.52431887498824,140.52431887498824,140.71247970795957,140.71247970795957,140.71247970795957,140.71247970795957,,,,,testl,2023-06-23_19h20.04.187,Pattern_1,2022.2.4,None,
slf13.xlsx,obs13.xlsx,test13.xlsx,,,,,,,,,,,,,,2,3,2,0,2,2,2,,,,,,,,,,,,,0,11,11,11,,,,,,,,,,,,,,,,,,,,,,,,,,,,,,,,,,,,,,,,,,,,,,,,,,,,,,,,,,,,,,,,,140.71247970795957,140.7987677080091,140.7987677080091,140.7987677080091,140.89523774996633,140.89523774996633,140.89523774996633,140.90750795800705,None,0,140.90750795800705,140.90750795800705,140.90750795800705,140.90750795800705,141.00784062495222,141.00784062495222,141.00784062495222,141.00784062495222,141.00784062495222,141.00784062495222,141.00784062495222,141.00784062495222,141.26755799999228,141.26755799999228,141.26755799999228,141.26755799999228,,,,,testl,2023-06-23_19h20.04.187,Pattern_1,2022.2.4,None,
slf13.xlsx,obs13.xlsx,test13.xlsx,,,,,,,,,,,,,,3,4,0,0,2,2,2,,,,,,,,,,,,,0,12,12,12,,,,,,,,,,,,,,,,,,,,,,,,,,,,,,,,,,,,,,,,,,,,,,,,,,,,,,,,,,,,,,,,,141.26755799999228,141.34874612500425,141.34874612500425,141.34874612500425,141.44522441696608,141.44522441696608,141.44522441696608,141.47383116697893,None,0,141.47383116697893,141.47383116697893,141.47383116697893,141.47383116697893,141.57418745796895,141.57418745796895,141.57418745796895,141.57418745796895,141.57418745796895,141.57418745796895,141.57418745796895,141.57418745796895,141.7649720829795,141.7649720829795,141.7649720829795,141.7649720829795,,,,,testl,2023-06-23_19h20.04.187,Pattern_1,2022.2.4,None,
slf13.xlsx,obs13.xlsx,test13.xlsx,,,,,,,,,,,,,,3,1,1,0,2,2,2,,,,,,,,,,,,,0,13,13,13,,,,,,,,,,,,,,,,,,,,,,,,,,,,,,,,,,,,,,,,,,,,,,,,,,,,,,,,,,,,,,,,,141.7649720829795,141.84905324998545,141.84905324998545,141.84905324998545,141.9452307499596,141.9452307499596,141.9452307499596,141.96518924995326,None,0,141.96518924995326,141.96518924995326,141.96518924995326,141.96518924995326,142.0653622499667,142.0653622499667,142.0653622499667,142.0653622499667,142.0653622499667,142.0653622499667,142.0653622499667,142.0653622499667,142.251904582954,142.251904582954,142.251904582954,142.251904582954,,,,,testl,2023-06-23_19h20.04.187,Pattern_1,2022.2.4,None,
slf13.xlsx,obs13.xlsx,test13.xlsx,,,,,,,,,,,,,,3,3,2,0,2,2,2,,,,,,,,,,,,,0,14,14,14,,,,,,,,,,,,,,,,,,,,,,,,,,,,,,,,,,,,,,,,,,,,,,,,,,,,,,,,,,,,,,,,,142.251904582954,142.33238629199332,142.33238629199332,142.33238629199332,142.42855562496698,142.42855562496698,142.42855562496698,142.4586465829634,None,0,142.4586465829634,142.4586465829634,142.4586465829634,142.4586465829634,142.5589415829745,142.5589415829745,142.5589415829745,142.5589415829745,142.5589415829745,142.5589415829745,142.5589415829745,142.5589415829745,142.7480627920013,142.7480627920013,142.7480627920013,142.7480627920013,,,,,testl,2023-06-23_19h20.04.187,Pattern_1,2022.2.4,None,
slf13.xlsx,obs13.xlsx,test13.xlsx,,,,,,,,,,,,,,3,1,2,0,2,2,2,,,,,,,,,,,,,0,15,15,15,,,,,,,,,,,,,,,,,,,,,,,,,,,,,,,,,,,,,,,,,,,,,,,,,,,,,,,,,,,,,,,,,142.7480627920013,142.83228970796335,142.83228970796335,142.83228970796335,142.93222254200373,142.93222254200373,142.93222254200373,142.9450484580011,None,0,142.9450484580011,142.9450484580011,142.9450484580011,142.9450484580011,143.0409142919816,143.0409142919816,143.0409142919816,143.0409142919816,143.0409142919816,143.0409142919816,143.0409142919816,143.0409142919816,143.2345242499723,143.2345242499723,143.2345242499723,143.2345242499723,,,,,testl,2023-06-23_19h20.04.187,Pattern_1,2022.2.4,None,
slf13.xlsx,obs13.xlsx,test13.xlsx,,,,,,,,,,,,,,3,5,0,0,2,2,2,,,,,,,,,,,,,0,16,16,16,,,,,,,,,,,,,,,,,,,,,,,,,,,,,,,,,,,,,,,,,,,,,,,,,,,,,,,,,,,,,,,,,143.2345242499723,143.31566166697303,143.31566166697303,143.31566166697303,143.41188070800854,143.41188070800854,143.41188070800854,143.44314558297629,None,0,143.44314558297629,143.44314558297629,143.44314558297629,143.44314558297629,143.5429462500033,143.5429462500033,143.5429462500033,143.5429462500033,143.5429462500033,143.5429462500033,143.5429462500033,143.5429462500033,143.7336337500019,143.7336337500019,143.7336337500019,143.7336337500019,,,,,testl,2023-06-23_19h20.04.187,Pattern_1,2022.2.4,None,
slf13.xlsx,obs13.xlsx,test13.xlsx,,,,,,,,,,,,,,3,2,1,0,2,2,2,,,,,,,,,,,,,0,17,17,17,,,,,,,,,,,,,,,,,,,,,,,,,,,,,,,,,,,,,,,,,,,,,,,,,,,,,,,,,,,,,,,,,143.7336337500019,143.81600929197157,143.81600929197157,143.81600929197157,143.91188454197254,143.91188454197254,143.91188454197254,143.9324203329743,None,0,143.9324203329743,143.9324203329743,143.9324203329743,143.9324203329743,144.03271204198245,144.03271204198245,144.03271204198245,144.03271204198245,144.03271204198245,144.03271204198245,144.03271204198245,144.03271204198245,144.21933049999643,144.21933049999643,144.21933049999643,144.21933049999643,,,,,testl,2023-06-23_19h20.04.187,Pattern_1,2022.2.4,None,
slf13.xlsx,obs13.xlsx,test13.xlsx,,,,,,,,,,,,,,3,3,1,0,2,2,2,,,,,,,,,,,,,0,18,18,18,,,,,,,,,,,,,,,,,,,,,,,,,,,,,,,,,,,,,,,,,,,,,,,,,,,,,,,,,,,,,,,,,144.21933049999643,144.29904804198304,144.29904804198304,144.29904804198304,144.39518637495348,144.39518637495348,144.39518637495348,144.42373466695426,None,0,144.42373466695426,144.42373466695426,144.42373466695426,144.42373466695426,144.52343537495472,144.52343537495472,144.52343537495472,144.52343537495472,144.52343537495472,144.52343537495472,144.52343537495472,144.52343537495472,144.78895504196407,144.78895504196407,144.78895504196407,144.78895504196407,,,,,testl,2023-06-23_19h20.04.187,Pattern_1,2022.2.4,None,
slf13.xlsx,obs13.xlsx,test13.xlsx,,,,,,,,,,,,,,3,2,2,0,2,2,2,,,,,,,,,,,,,0,19,19,19,,,,,,,,,,,,,,,,,,,,,,,,,,,,,,,,,,,,,,,,,,,,,,,,,,,,,,,,,,,,,,,,,144.78895504196407,144.86641033296473,144.86641033296473,144.86641033296473,144.96191154199187,144.96191154199187,144.96191154199187,144.99195420800243,None,0,144.99195420800243,144.99195420800243,144.99195420800243,144.99195420800243,145.09198679198744,145.09198679198744,145.09198679198744,145.09198679198744,145.09198679198744,145.09198679198744,145.09198679198744,145.09198679198744,145.28445016697515,145.28445016697515,145.28445016697515,145.28445016697515,,,,,testl,2023-06-23_19h20.04.187,Pattern_1,2022.2.4,None,
slf13.xlsx,obs13.xlsx,test13.xlsx,,,,,,,,,,,,,,3,6,0,0,2,2,2,,,,,,,,,,,,,0,20,20,20,,,,,,,,,,,,,,,,,,,,,,,,,,,,,,,,,,,,,,,,,,,,,,,,,,,,,,,,,,,,,,,,,145.28445016697515,145.3664968329831,145.3664968329831,145.3664968329831,145.46528595796553,145.46528595796553,145.46528595796553,145.49152862495976,None,0,145.49152862495976,145.49152862495976,145.49152862495976,145.49152862495976,145.59128216700628,145.59128216700628,145.59128216700628,145.59128216700628,145.59128216700628,145.59128216700628,145.59128216700628,145.59128216700628,145.78529745800188,145.78529745800188,145.78529745800188,145.78529745800188,,,,,testl,2023-06-23_19h20.04.187,Pattern_1,2022.2.4,None,
slf13.xlsx,obs13.xlsx,test13.xlsx,,,,,,,,,,,,,,4,4,0,0,2,2,2,,,,,,,,,,,,,0,21,21,21,,,,,,,,,,,,,,,,,,,,,,,,,,,,,,,,,,,,,,,,,,,,,,,,,,,,,,,,,,,,,,,,,145.78529745800188,145.8655855829711,145.8655855829711,145.8655855829711,145.96186008298537,145.96186008298537,145.96186008298537,145.99058812495787,None,0,145.99058812495787,145.99058812495787,145.99058812495787,145.99058812495787,146.090745583002,146.090745583002,146.090745583002,146.090745583002,146.090745583002,146.090745583002,146.090745583002,146.090745583002,146.28526154195424,146.28526154195424,146.28526154195424,146.28526154195424,,,,,testl,2023-06-23_19h20.04.187,Pattern_1,2022.2.4,None,
slf13.xlsx,obs13.xlsx,test13.xlsx,,,,,,,,,,,,,,4,1,1,0,2,2,2,,,,,,,,,,,,,0,22,22,22,,,,,,,,,,,,,,,,,,,,,,,,,,,,,,,,,,,,,,,,,,,,,,,,,,,,,,,,,,,,,,,,,146.28526154195424,146.365602707956,146.365602707956,146.365602707956,146.46184941695537,146.46184941695537,146.46184941695537,146.49082599999383,None,0,146.49082599999383,146.49082599999383,146.49082599999383,146.49082599999383,146.59105904196622,146.59105904196622,146.59105904196622,146.59105904196622,146.59105904196622,146.59105904196622,146.59105904196622,146.59105904196622,146.78445787500823,146.78445787500823,146.78445787500823,146.78445787500823,,,,,testl,2023-06-23_19h20.04.187,Pattern_1,2022.2.4,None,
slf13.xlsx,obs13.xlsx,test13.xlsx,,,,,,,,,,,,,,4,3,2,0,2,2,2,,,,,,,,,,,,,0,23,23,23,,,,,,,,,,,,,,,,,,,,,,,,,,,,,,,,,,,,,,,,,,,,,,,,,,,,,,,,,,,,,,,,,146.78445787500823,146.86523495800793,146.86523495800793,146.86523495800793,146.9619551670039,146.9619551670039,146.9619551670039,146.98997791699367,None,0,146.98997791699367,146.98997791699367,146.98997791699367,146.98997791699367,147.09029708296293,147.09029708296293,147.09029708296293,147.09029708296293,147.09029708296293,147.09029708296293,147.09029708296293,147.09029708296293,147.29162912495667,147.29162912495667,147.29162912495667,147.29162912495667,,,,,testl,2023-06-23_19h20.04.187,Pattern_1,2022.2.4,None,
slf13.xlsx,obs13.xlsx,test13.xlsx,,,,,,,,,,,,,,4,1,2,0,2,2,2,,,,,,,,,,,,,0,24,24,24,,,,,,,,,,,,,,,,,,,,,,,,,,,,,,,,,,,,,,,,,,,,,,,,,,,,,,,,,,,,,,,,,147.29162912495667,147.3655354169896,147.3655354169896,147.3655354169896,147.46206479199464,147.46206479199464,147.46206479199464,147.4927115829778,None,0,147.4927115829778,147.4927115829778,147.4927115829778,147.4927115829778,147.5926452499698,147.5926452499698,147.5926452499698,147.5926452499698,147.5926452499698,147.5926452499698,147.5926452499698,147.5926452499698,147.78864041698398,147.78864041698398,147.78864041698398,147.78864041698398,,,,,testl,2023-06-23_19h20.04.187,Pattern_1,2022.2.4,None,
